Time,Accel-X (g), Accel-Y (g), Accel-Z (g)
15:26:51,1.234619,1.076904,0.883301
15:26:51,1.184326,1.1875,0.76001
15:26:51,1.32373,1.511963,0.793945
15:26:51,1.798096,1.971436,1.080566
15:26:51,2.302246,2.379883,1.27002
15:26:51,2.283936,2.962646,0.369873
15:26:51,1.601318,3.349365,-1.584717
15:26:51,0.830322,2.905762,-3.160156
15:26:51,0.588623,1.8479,-3.931641
15:26:51,0.570068,0.577881,-4.746582
15:26:51,-1.123047,-0.579834,-6.685059
15:26:51,-1.267334,-1.650146,-7.773438
15:26:51,6.020996,-2.476074,-3.633057
15:26:51,7.643311,-2.215332,-0.075439
15:26:51,2.124268,-0.638428,-0.799316
15:26:51,-0.324463,-1.306885,-0.34082
15:26:51,-0.657959,-7.963379,7.999756
15:26:51,1.560303,-0.607178,2.522217
15:26:51,-0.156982,0.666504,-0.681641
15:26:51,2.158691,3.13916,-1.553467
15:26:51,1.398193,2.942383,-1.983643
15:26:51,1.218994,1.681152,-0.657715
15:26:51,1.104248,0.525391,0.538818
15:26:51,0.791992,-0.136963,1.112793
15:26:51,0.52417,-0.405518,1.073975
15:26:51,0.262451,-0.489258,0.71582
15:26:51,0.291748,-0.525879,0.857178
15:26:51,0.392334,-0.556641,1.076172
15:26:51,0.3479,-0.454834,0.906738
15:26:51,0.341064,-0.28418,0.784912
15:26:51,0.406494,-0.153076,0.78833
15:26:51,0.450928,-0.023193,0.722656
15:26:51,0.544189,0.116699,0.675537
15:26:51,1,0.516846,0.713379
15:26:51,1.15625,0.937256,0.371826
15:26:51,0.888184,1.006836,-0.051758
15:26:51,0.937988,0.861084,0.20874
15:26:51,0.769775,0.465576,0.55957
15:26:51,0.593262,0.165527,0.724609
15:26:51,0.536865,0.01416,0.813721
15:26:51,0.490967,-0.05249,0.771973
15:26:51,0.503906,-0.083984,0.752197
15:26:51,0.53833,-0.075684,0.780762
15:26:51,0.592285,-0.035889,0.743896
15:26:51,0.714355,0.077881,0.696777
15:26:51,0.798584,0.254883,0.621094
15:26:51,0.797607,0.328857,0.500488
15:26:51,0.756836,0.218994,0.583008
15:26:51,0.666504,0.040771,0.687988
15:26:51,0.63501,-0.091553,0.77124
15:26:51,0.560547,-0.147705,0.797607
15:26:51,0.523682,-0.188721,0.786621
15:26:51,0.56958,-0.165771,0.774902
15:26:51,0.631348,-0.081055,0.732666
15:26:51,0.718994,0.010986,0.709229
15:26:51,0.729004,0.056641,0.674316
15:26:51,0.684326,0.04126,0.672852
15:26:51,0.556396,-0.138428,0.819092
15:26:51,0.222656,-0.320557,0.939697
15:26:51,1.284668,-0.226074,0.929443
15:26:51,1.335205,-0.264404,0.549072
15:26:51,0.181152,-0.346924,0.622559
15:26:51,0.378906,-0.07666,1.237061
15:26:51,0.775635,0.6604,1.088379
15:26:51,1.098145,1.328613,0.676025
15:26:51,0.933105,1.156982,0.89917
15:26:51,1.259277,1.353516,2.023438
15:26:51,1.280762,1.525146,2.765381
15:26:51,0.843994,1.673828,1.558105
15:26:51,1.258545,2.295654,1.035156
15:26:51,1.52417,2.812744,1.576416
15:26:51,1.436523,2.589111,2.188232
15:26:51,2.087891,2.091553,3.799072
15:26:51,1.635254,2.514404,2.471924
15:26:51,0.1521,1.718018,-0.80127
15:26:51,-0.115723,2.081787,-0.687988
15:26:51,-0.089355,2.087158,-0.668945
15:26:51,-0.622314,1.63501,-0.696289
15:26:51,-1.047119,1.148682,-0.373779
15:26:51,-1.383301,0.950195,-0.274414
15:26:51,-1.718262,0.792969,0.294434
15:26:51,-1.439941,0.461914,0.151855
15:26:51,-0.770752,0.332764,0.253418
15:26:51,-0.25293,0.314941,0.604736
15:26:51,0.06958,0.349609,0.661865
15:26:51,0.387695,0.571777,0.634521
15:26:51,0.72583,0.926514,0.526611
15:26:51,0.991455,1.163818,0.42749
15:26:51,1.114746,1.223877,0.419189
15:26:51,1.148438,1.175049,0.437988
15:26:51,1.1604,1.031738,0.55542
15:26:51,1.112549,0.867188,0.687012
15:26:51,1.073975,0.727539,0.803467
15:26:51,1.161865,0.671143,0.973633
15:26:51,1.310303,0.726318,1.110352
15:26:51,1.493164,0.877441,1.148926
15:26:51,1.766357,1.092285,1.178711
15:26:51,1.912109,1.327148,0.961426
15:26:51,1.929932,1.503662,0.541504
15:26:51,2.016357,1.729492,0.345703
15:26:52,2.204102,1.962402,0.005859
15:26:52,2.05542,2.124023,-0.75415
15:26:52,1.579834,2.03833,-1.899658
15:26:52,1.373047,1.726074,-2.791016
15:26:52,1.381348,1.056885,-3.597412
15:26:52,1.011963,0.233154,-4.323975
15:26:52,0.632324,-0.417969,-4.556641
15:26:52,2.27002,-1.008545,-4.455566
15:26:52,1.979004,-0.39502,-3.013916
15:26:52,2.041504,-0.115234,-0.643555
15:26:52,2.985352,-0.503174,2.338135
15:26:52,3.303955,-0.438965,2.408203
15:26:52,1.424072,-2.46582,1.67627
15:26:52,-1.855957,-2.359131,0.50415
15:26:52,0.516846,-0.718018,3.403564
15:26:52,2.487549,0.187012,4.75708
15:26:52,-0.089355,1.448975,-0.291016
15:26:52,0.322021,2.441895,-2.22168
15:26:52,1.789795,2.709229,-0.552979
15:26:52,1.323486,1.578125,-0.079346
15:26:52,0.649414,0.643066,-0.080811
15:26:52,0.75,0.073975,0.748291
15:26:52,0.747314,-0.272705,1.153564
15:26:52,0.518066,-0.392578,0.786377
15:26:52,0.464111,-0.437744,0.62915
15:26:52,0.750244,-0.493896,0.945068
15:26:52,0.764648,-0.488037,0.839844
15:26:52,0.71875,-0.313965,0.665039
15:26:52,0.766113,-0.152832,0.687012
15:26:52,0.789307,0.088135,0.62915
15:26:52,1.044922,0.582031,0.557129
15:26:52,0.830566,0.796875,0.195557
15:26:52,0.741211,0.852783,0.25708
15:26:52,0.605957,0.662354,0.544678
15:26:52,0.43335,0.408447,0.724609
15:26:52,0.398926,0.294922,0.800293
15:26:52,0.394775,0.322266,0.754639
15:26:52,0.457031,0.363525,0.739258
15:26:52,0.489258,0.395264,0.698486
15:26:52,0.544434,0.429932,0.646973
15:26:52,0.599609,0.391846,0.63501
15:26:52,0.627441,0.298828,0.644775
15:26:52,0.654297,0.191162,0.667969
15:26:52,0.645508,0.098633,0.715088
15:26:52,0.653564,0.061035,0.734131
15:26:52,0.711182,0.058838,0.720703
15:26:52,0.746826,0.109375,0.698242
15:26:52,0.759766,0.162598,0.679688
15:26:52,0.724365,0.140869,0.723633
15:26:52,0.604248,0.131104,0.723389
15:26:52,0.525635,0.077637,0.766602
15:26:52,0.489258,0.040771,0.821777
15:26:52,0.462891,0.048828,0.834717
15:26:52,0.453369,0.063721,0.856934
15:26:52,0.469727,0.061768,0.809082
15:26:52,0.466309,0.042725,0.81665
15:26:52,0.391602,-0.076904,0.952148
15:26:52,0.308105,-0.133545,0.941895
15:26:52,0.485596,0.114014,0.854004
15:26:52,0.505127,0.228271,0.78833
15:26:52,0.324951,0.069336,0.904785
15:26:52,0.260498,0.031494,1.021484
15:26:52,0.465332,0.350098,1.042236
15:26:52,0.593262,0.700684,0.824951
15:26:52,1.13623,1.121826,0.519531
15:26:52,2.214355,1.835205,1.85083
15:26:52,1.970215,1.574951,2.338867
15:26:52,1.16748,1.233643,2.164307
15:26:52,0.935791,1.78833,1.926514
15:26:52,1.09082,2.480469,1.5979
15:26:52,1.947266,2.604736,2.747314
15:26:52,2.536621,2.887451,3.58252
15:26:52,1.314209,2.753174,1.07666
15:26:52,-0.136475,2.177246,-1.324707
15:26:52,-0.186279,2.375488,-0.83374
15:26:52,-0.284912,1.905518,-0.453125
15:26:52,-0.896973,1.173584,-0.452881
15:26:52,-1.269775,0.859375,-0.487549
15:26:52,-1.569092,0.773438,-0.384766
15:26:52,-1.718994,0.685547,0.20166
15:26:52,-1.551025,0.407959,0.179688
15:26:52,-0.787354,0.278564,0.265869
15:26:52,-0.271973,0.213867,0.5625
15:26:52,-0.022949,0.20459,0.580566
15:26:52,0.237061,0.318359,0.713379
15:26:52,0.557861,0.630127,0.831787
15:26:52,0.882813,1.05542,0.687744
15:26:52,1.042725,1.293945,0.306885
15:26:52,1.10498,1.323975,0.279785
15:26:52,1.212158,1.185303,0.403809
15:26:52,1.246582,0.986572,0.563965
15:26:52,1.253174,0.794922,0.736328
15:26:52,1.359375,0.695313,0.979492
15:26:52,1.503906,0.659424,1.093506
15:26:52,1.648193,0.751709,1.132568
15:26:52,1.751953,0.946777,1.013428
15:26:52,1.829102,1.181152,0.869385
15:26:52,2.156982,1.544922,1.116211
15:26:52,2.483398,2.015625,1.251709
15:26:52,2.192627,2.369873,0.386475
15:26:53,1.434082,2.58374,-1.278076
15:26:53,0.738525,2.69165,-2.924072
15:26:53,0.431152,2.348389,-4.050049
15:26:53,0.485596,1.32959,-4.649658
15:26:53,0.317383,0.144287,-5.050293
15:26:53,0.329346,-0.587402,-5.258057
15:26:53,2.520996,-0.969482,-4.753662
15:26:53,5.899902,-1.056885,-2.139404
15:26:53,4.39917,-1.112305,1.24292
15:26:53,1.989258,-0.347412,0.380371
15:26:53,-0.669922,-1.67749,0.013672
15:26:53,-3.218018,-4.280762,3.344482
15:26:53,1.070313,-0.658447,2.715576
15:26:53,2.717529,1.318359,3.395996
15:26:53,0.677002,2.039063,-0.888428
15:26:53,0.195068,3.281738,-3.258545
15:26:53,2.195068,3.634521,-0.474121
15:26:53,1.099854,1.923828,-0.118896
15:26:53,0.196777,0.558105,-0.190918
15:26:53,0.557617,-0.020752,1.032715
15:26:53,0.685303,-0.306152,1.400146
15:26:53,0.312012,-0.391113,0.62207
15:26:53,0.241211,-0.515869,0.536865
15:26:53,0.497803,-0.741699,1.081543
15:26:53,0.538574,-0.763916,0.974121
15:26:53,0.547852,-0.602051,0.754639
15:26:53,0.625732,-0.435303,0.827393
15:26:53,0.552246,-0.264648,0.726807
15:26:53,0.501221,-0.117676,0.661865
15:26:53,0.660889,0.109863,0.715576
15:26:53,1.072266,0.687256,0.626953
15:26:53,1.146484,1.242676,0.115479
15:26:53,0.668701,1.196289,-0.263672
15:26:53,0.794678,1.063721,0.296631
15:26:53,0.508057,0.544922,0.627441
15:26:53,0.407959,0.256592,0.815918
15:26:53,0.421631,0.123291,0.856689
15:26:53,0.422607,0.08667,0.758789
15:26:53,0.438721,0.013184,0.734619
15:26:53,0.482666,-0.015137,0.780273
15:26:53,0.538086,-0.019043,0.798828
15:26:53,0.649902,0.041992,0.745361
15:26:53,0.807373,0.2146,0.678223
15:26:53,0.855957,0.370361,0.539795
15:26:53,0.882568,0.421143,0.474121
15:26:53,0.830566,0.344238,0.540039
15:26:53,0.726074,0.190186,0.647217
15:26:53,0.628906,0.072021,0.765869
15:26:53,0.531494,0.008789,0.828125
15:26:53,0.467041,-0.003906,0.818848
15:26:53,0.425537,0.002197,0.81543
15:26:53,0.431152,-0.014893,0.857666
15:26:53,0.474854,0.022461,0.806885
15:26:53,0.49585,-0.007324,0.81958
15:26:53,0.395996,-0.189941,0.973145
15:26:53,0.368896,-0.169189,0.990723
15:26:53,0.55957,0.105957,0.870361
15:26:53,0.647949,0.279297,0.826904
15:26:53,0.538086,0.286377,0.922363
15:26:53,0.391846,0.306885,1.056152
15:26:53,0.40918,0.500244,1.174072
15:26:53,0.705811,0.736084,1.146484
15:26:53,1.705078,1.51709,1.379883
15:26:53,2.036621,2.135986,2.096924
15:26:53,0.904053,1.749512,1.598145
15:26:53,0.890137,2.081543,1.888428
15:26:53,0.644531,2.237793,1.990967
15:26:53,1.489014,2.56543,2.861572
15:26:53,1.59375,2.659912,3.141113
15:26:53,0.670898,2.799072,0.379883
15:26:53,-0.378662,2.6604,-1.59375
15:26:53,-0.375488,2.645508,-0.98291
15:26:53,-0.617676,1.935791,-0.557129
15:26:53,-0.947266,1.186279,-0.218262
15:26:53,-1.112305,0.751953,0.041748
15:26:53,-1.105713,0.584473,0.161377
15:26:53,-1.222168,0.392578,0.334717
15:26:53,-1.102783,0.232666,0.1875
15:26:53,-0.711182,0.217773,0.214111
15:26:53,-0.388184,0.229736,0.525146
15:26:53,-0.228516,0.222656,0.601563
15:26:53,-0.055664,0.351074,0.579834
15:26:53,0.275391,0.802734,0.594238
15:26:53,0.602051,1.38501,0.442383
15:26:53,0.767578,1.688965,0.246582
15:26:53,0.864502,1.690918,0.275635
15:26:53,0.936768,1.523926,0.442627
15:26:53,0.885742,1.254395,0.575439
15:26:53,0.84375,1.028809,0.727783
15:26:53,0.934814,0.913818,0.958008
15:26:53,1.076416,0.930664,1.144775
15:26:53,1.19165,1.0354,1.05957
15:26:53,1.294922,1.175049,0.904541
15:26:53,1.435303,1.355469,0.797119
15:26:53,1.787842,1.601563,0.934326
15:26:53,2.444336,2.200684,1.206787
15:26:53,2.40918,2.713623,0.26709
15:26:53,1.748535,2.979736,-1.291504
15:26:53,0.974854,2.789063,-2.651123
15:26:53,0.57251,2.203857,-3.630615
15:26:54,0.70752,1.063721,-4.193115
15:26:54,0.647461,0.10791,-4.745605
15:26:54,-0.081299,-0.530762,-5.02124
15:26:54,2.323486,-1.429199,-4.573242
15:26:54,4.817871,-0.770264,-4.02417
15:26:54,4.44165,-0.568359,-0.141846
15:26:54,2.698242,0.049072,0.816895
15:26:54,1.044922,-3.885498,2.52002
15:26:54,-1.502197,-4.879395,3.907959
15:26:54,-0.97998,-0.943848,2.231689
15:26:54,1.962646,0.108887,2.992432
15:26:54,1.451904,1.652588,1.504639
15:26:54,0.095703,2.877441,-2.514893
15:26:54,0.515137,3.845703,-2.278564
15:26:54,1.693359,3.187256,0.331787
15:26:54,0.15918,0.953369,0.130371
15:26:54,0.061279,0.227539,0.667969
15:26:54,0.530762,0.010254,1.309326
15:26:54,0.487305,-0.157715,1.114502
15:26:54,0.203857,-0.267822,0.593506
15:26:54,0.127197,-0.366455,0.770752
15:26:54,0.284912,-0.406006,1.06543
15:26:54,0.432617,-0.362061,1.006592
15:26:54,0.480225,-0.289063,0.791504
15:26:54,0.51416,-0.231445,0.822998
15:26:54,0.503906,-0.150391,0.826172
15:26:54,0.422852,-0.0896,0.711914
15:26:54,0.932617,0.539063,0.842529
15:26:54,1.015625,1.061279,0.358154
15:26:54,0.67627,1.246582,-0.208252
15:26:54,0.696289,1.237061,0.135986
15:26:54,0.533691,0.843018,0.562256
15:26:54,0.30957,0.434814,0.782715
15:26:54,0.298828,0.285156,0.90918
15:26:54,0.291016,0.265869,0.826172
15:26:54,0.289063,0.291016,0.765869
15:26:54,0.363525,0.372803,0.766602
15:26:54,0.480469,0.501465,0.669189
15:26:54,0.595703,0.571289,0.562744
15:26:54,0.638916,0.485596,0.553467
15:26:54,0.614746,0.306641,0.641602
15:26:54,0.588135,0.174316,0.706787
15:26:54,0.596191,0.124023,0.727783
15:26:54,0.615234,0.12793,0.735352
15:26:54,0.65625,0.16626,0.706787
15:26:54,0.738525,0.220215,0.640625
15:26:54,0.802002,0.282471,0.618408
15:26:54,0.750977,0.206299,0.742188
15:26:54,0.569092,0.087646,0.755127
15:26:54,0.484619,0.03125,0.890137
15:26:54,0.45459,0.016113,0.891357
15:26:54,0.438477,0.012451,0.87915
15:26:54,0.433105,0.050293,0.833008
15:26:54,0.472412,0.126465,0.822021
15:26:54,0.533447,0.181641,0.856689
15:26:54,0.513916,0.135742,0.878906
15:26:54,0.174805,-0.291992,1.31543
15:26:54,0.292725,0.023682,1.290283
15:26:54,0.632568,0.631836,0.88208
15:26:54,0.646484,0.665527,0.99585
15:26:54,1.220215,0.994629,2.445313
15:26:54,1.218506,1.526611,2.66748
15:26:54,0.56958,2.012939,1.308594
15:26:54,0.375977,2.449219,0.884521
15:26:54,0.183594,2.235107,1.484375
15:26:54,0.851563,2.14624,2.703613
15:26:54,1.8396,2.504395,3.519531
15:26:54,0.942871,2.326172,1.688965
15:26:54,-0.248291,2.162354,-0.79541
15:26:54,-0.450928,2.195557,-0.798096
15:26:54,-0.365479,1.916748,-0.112305
15:26:54,-0.719238,1.197266,-0.0896
15:26:54,-0.916504,0.821533,-0.042969
15:26:54,-1.116211,0.702393,-0.192139
15:26:54,-1.261963,0.736328,-0.160645
15:26:54,-1.467773,0.727539,0.171387
15:26:54,-1.777832,0.606201,0.409912
15:26:54,-1.284668,0.563721,0.354736
15:26:54,-0.703125,0.532715,0.663574
15:26:54,-0.386719,0.51001,0.79541
15:26:54,0.018311,0.721191,0.924805
15:26:54,0.574219,1.261963,0.828857
15:26:54,0.918701,1.700684,0.528076
15:26:54,1.030762,1.773438,0.312988
15:26:54,1.174561,1.58667,0.380371
15:26:54,1.256592,1.311035,0.559814
15:26:54,1.291992,1.049561,0.787109
15:26:54,1.294434,0.813232,0.922607
15:26:54,1.263428,0.645752,0.961426
15:26:54,1.227295,0.571777,0.957275
15:26:54,1.224365,0.524658,1.036133
15:26:54,1.432373,0.574463,1.310547
15:26:54,1.964355,0.912109,1.575684
15:26:54,2.469238,1.505127,1.453857
15:26:54,2.577148,2.131836,0.81665
15:26:54,2.200684,2.568115,-0.307617
15:26:54,1.384766,2.689697,-1.788086
15:26:54,0.716309,2.503662,-3.054199
15:26:54,0.606934,1.921143,-3.751953
15:26:54,0.682129,1.139648,-4.152832
15:26:55,0.708496,0.423584,-4.450195
15:26:55,1.513672,-0.099121,-3.871826
15:26:55,2.855469,-0.217529,-3.05249
15:26:55,3.8125,0.164551,-2.35791
15:26:55,2.725098,-0.018311,-1.077881
15:26:55,1.987549,-0.417969,0.716309
15:26:55,1.144775,-0.362305,0.834961
15:26:55,0.609863,-5.306641,4.297852
15:26:55,-2.041992,-1.83667,-0.224609
15:26:55,0.094727,-0.496826,1.189209
15:26:55,1.552734,-0.079102,5.040283
15:26:55,0.485596,0.814453,1.789307
15:26:55,-0.40332,2.412354,-1.815186
15:26:55,0.716309,3.856201,-1.279297
15:26:55,0.993896,3.044434,-0.101074
15:26:55,0.298096,1.351807,0.265869
15:26:55,0.132813,0.380859,0.761475
15:26:55,0.375488,0.07373,1.229248
15:26:55,0.363525,0,0.975586
15:26:55,0.19458,-0.095703,0.634521
15:26:55,0.224854,-0.187012,0.841309
15:26:55,0.353027,-0.23999,1.0354
15:26:55,0.409668,-0.181152,0.980469
15:26:55,0.451416,-0.093506,0.847656
15:26:55,0.592041,-0.090576,0.745117
15:26:55,0.674561,0.064209,0.779541
15:26:55,0.867676,0.508545,0.712158
15:26:55,0.89209,0.938232,0.349854
15:26:55,0.679443,0.979492,0.112061
15:26:55,0.770752,0.881836,0.445068
15:26:55,0.577393,0.490234,0.602051
15:26:55,0.496338,0.206787,0.821045
15:26:55,0.453857,0.07959,0.90625
15:26:55,0.405518,0.043945,0.816895
15:26:55,0.457764,0.123047,0.816162
15:26:55,0.533936,0.251465,0.765869
15:26:55,0.587891,0.410889,0.67627
15:26:55,0.593018,0.495605,0.594971
15:26:55,0.612061,0.412598,0.624756
15:26:55,0.575439,0.237305,0.737793
15:26:55,0.554932,0.121826,0.781006
15:26:55,0.585449,0.098877,0.794922
15:26:55,0.593506,0.128906,0.785889
15:26:55,0.553223,0.143555,0.793213
15:26:55,0.512939,0.142578,0.770264
15:26:55,0.481934,0.136475,0.800293
15:26:55,0.457031,0.104004,0.863037
15:26:55,0.44751,0.098145,0.859619
15:26:55,0.462646,0.146973,0.82373
15:26:55,0.499268,0.183105,0.7854
15:26:55,0.519531,0.197266,0.768799
15:26:55,0.571045,0.227783,0.756104
15:26:55,0.578369,0.038818,0.941162
15:26:55,0.273193,-0.448486,1.325684
15:26:55,0.10376,-0.295898,1.232422
15:26:55,0.532959,0.458252,0.837402
15:26:55,0.727051,0.585205,1.101563
15:26:55,0.85083,0.431641,1.839111
15:26:55,1.462402,1.079834,3.258789
15:26:55,0.667725,1.146484,2.537109
15:26:55,-0.025391,1.484863,1.323242
15:26:55,0.397461,2.435303,1.377441
15:26:55,0.538818,2.945557,1.576416
15:26:55,1.48877,2.42627,3.45459
15:26:55,1.231934,3.101807,2.896729
15:26:55,-0.195068,2.418457,-0.125977
15:26:55,-0.930176,2.210449,-0.744873
15:26:55,-0.94751,1.90332,-0.322021
15:26:55,-1.092285,1.181396,0.105957
15:26:55,-1.285889,0.608643,0.371338
15:26:55,-1.41626,0.328613,0.437012
15:26:55,-1.34082,0.213135,0.525391
15:26:55,-1.105957,0.216064,0.504395
15:26:55,-0.817139,0.405273,0.459229
15:26:55,-0.461182,0.75293,0.435791
15:26:55,-0.125732,1.064453,0.381104
15:26:55,0.09375,1.142822,0.32959
15:26:55,0.201416,1.011475,0.317383
15:26:55,0.302734,0.867676,0.480957
15:26:55,0.433594,0.787354,0.638672
15:26:55,0.51123,0.773682,0.746582
15:26:55,0.595215,0.79248,0.785889
15:26:55,0.721191,0.861328,0.865479
15:26:55,0.843262,0.918213,0.937988
15:26:55,0.978516,0.964111,0.995361
15:26:55,1.114502,1.04541,1.058105
15:26:55,1.272217,1.180664,1.138672
15:26:55,1.296875,1.296631,1
15:26:55,1.261963,1.35498,0.85791
15:26:55,1.366211,1.394775,1.001953
15:26:55,1.793945,1.693604,1.466553
15:26:55,2.230225,2.215088,1.786377
15:26:55,2.045654,2.735596,1.029541
15:26:55,1.248779,3.069824,-0.544189
15:26:55,0.39502,3.219238,-2.177734
15:26:55,-0.031738,2.760742,-3.165283
15:26:55,0.278076,1.871826,-3.765381
15:26:55,0.44751,0.841309,-4.337158
15:26:55,0.529297,0.130615,-4.526855
15:26:55,1.338623,0.186035,-4.287842
15:26:56,3.39917,0.905762,-3.150146
15:26:56,4.729736,0.623047,-1.614746
15:26:56,2.546875,-0.191162,-0.838135
15:26:56,0.574951,-0.737549,0.05542
15:26:56,0.272461,-5.354736,3.125732
15:26:56,-1.686523,-6.358398,2.331299
15:26:56,-1.067871,-0.029297,-1.130127
15:26:56,3.415283,0.404785,4.387451
15:26:56,3.81543,3.856201,3.585938
15:26:56,-1.838135,2.961914,-4.13208
15:26:56,-0.38208,3.839844,-3.210449
15:26:56,2.103271,2.987305,1.588379
15:26:56,0.112305,0.631836,0.27832
15:26:56,-0.136963,-0.120361,0.192627
15:26:56,0.858398,-0.24292,1.53418
15:26:56,0.590088,-0.492676,1.095459
15:26:56,0.085693,-0.664063,0.401367
15:26:56,0.41748,-1.280029,1.182861
15:26:56,0.439941,-1.314209,0.938232
15:26:56,0.478271,-0.880615,0.783936
15:26:56,0.490967,-0.506104,0.945557
15:26:56,0.366455,-0.239258,0.808105
15:26:56,0.270508,-0.062256,0.709473
15:26:56,0.282715,0.018555,0.756104
15:26:56,0.706055,0.710938,0.835449
15:26:56,1.073975,1.658936,0.395508
15:26:56,0.46875,1.792725,-0.495605
15:26:56,0.413086,1.523193,-0.121094
15:26:56,0.571045,0.960938,0.604248
15:26:56,0.357666,0.358154,0.752197
15:26:56,0.442383,0.171875,0.961914
15:26:56,0.40918,0.060303,0.89917
15:26:56,0.301514,-0.037354,0.736328
15:26:56,0.355713,-0.087158,0.848633
15:26:56,0.44751,-0.119873,0.920898
15:26:56,0.477295,-0.096924,0.817139
15:26:56,0.526611,-0.03125,0.770508
15:26:56,0.664307,0.078369,0.763916
15:26:56,0.796143,0.389404,0.703125
15:26:56,0.828613,0.757568,0.461182
15:26:56,0.647949,0.684814,0.260498
15:26:56,0.700928,0.426025,0.646729
15:26:56,0.608887,0.028076,0.814209
15:26:56,0.644531,-0.103516,0.952881
15:26:56,0.478516,-0.16626,0.818848
15:26:56,0.492432,-0.20166,0.863281
15:26:56,0.527344,-0.198242,0.922607
15:26:56,0.531982,-0.131836,0.873291
15:26:56,0.53125,-0.053223,0.848877
15:26:56,0.522461,0.003906,0.817139
15:26:56,0.571289,0.101563,0.81958
15:26:56,0.630859,0.215088,0.81665
15:26:56,0.574951,0.180908,0.871582
15:26:56,0.5625,0.033936,1.313232
15:26:56,0.460449,-0.005371,1.52002
15:26:56,0.599854,0.338135,1.608398
15:26:56,1.106445,0.956055,2.43335
15:26:56,1.108887,1.314697,2.820313
15:26:56,0.670654,1.676025,1.804443
15:26:56,0.489502,2.360596,1.164795
15:26:56,0.719971,2.856201,1.70459
15:26:56,1.244385,2.578857,2.662598
15:26:56,1.178223,2.070068,3.425293
15:26:56,0.276855,2.20166,1.799561
15:26:56,-0.69043,1.345947,-0.662109
15:26:56,-0.744141,1.587158,0.057861
15:26:56,-0.56958,1.397949,0.308594
15:26:56,-0.78833,0.939941,0.249268
15:26:56,-0.856201,0.74585,0.237305
15:26:56,-0.992188,0.65332,0.040283
15:26:56,-1.15332,0.654785,-0.000977
15:26:56,-1.2771,0.783691,0.155762
15:26:56,-1.259766,0.93457,0.354736
15:26:56,-1.201416,1.034668,0.233398
15:26:56,-0.890869,1.069824,0.246826
15:26:56,-0.428955,1.107178,0.320313
15:26:56,-0.005859,1.182861,0.400635
15:26:56,0.324463,1.234375,0.451416
15:26:56,0.58667,1.218994,0.499268
15:26:56,0.802246,1.189209,0.596924
15:26:56,0.981445,1.148193,0.698975
15:26:56,1.083496,1.047119,0.728516
15:26:56,1.093994,0.911865,0.701416
15:26:56,1.095703,0.799561,0.719482
15:26:56,1.216309,0.778564,0.818848
15:26:56,1.360596,0.830811,0.890137
15:26:56,1.516113,0.916504,1.041016
15:26:56,1.706543,1.056885,1.266846
15:26:56,1.779541,1.299805,1.225586
15:26:56,1.897217,1.716797,1.118164
15:26:56,2.028564,2.213379,1.001953
15:26:56,1.7854,2.579346,0.20166
15:26:56,1.17749,2.64209,-1.077637
15:26:56,0.744629,2.571533,-2.119629
15:26:56,0.732422,2.338379,-2.745361
15:26:56,1.016357,1.782471,-3.371338
15:26:56,0.703369,0.916016,-4.044922
15:26:56,0.359619,0.349854,-4.28418
15:26:56,0.710449,0.134033,-4.294434
15:26:56,3.036865,0.648438,-2.680664
15:26:57,5.34375,-0.242188,0.05835
15:26:57,2.932861,-0.633057,0.251709
15:26:57,1.058838,-1.055176,-0.514893
15:26:57,-1.753662,-5.860596,2.581299
15:26:57,-0.17627,-2.592041,1.962158
15:26:57,2.21875,-0.558105,2.67627
15:26:57,2.279297,1.052246,1.906738
15:26:57,0.476563,2.634277,-1.615479
15:26:57,0.828369,3.705566,-2.244873
15:26:57,1.475098,3.002441,-0.495605
15:26:57,0.624268,1.196045,0.230225
15:26:57,0.244873,0.200439,0.509033
15:26:57,0.735596,-0.200928,1.323242
15:26:57,0.648193,-0.367676,1.128418
15:26:57,0.058105,-0.468018,0.375977
15:26:57,0.199951,-0.814697,0.978271
15:26:57,0.464355,-0.997314,1.274658
15:26:57,0.422119,-0.728516,0.762695
15:26:57,0.525635,-0.481445,0.865479
15:26:57,0.441406,-0.279297,0.814941
15:26:57,0.367188,-0.115967,0.704102
15:26:57,0.408447,-0.008789,0.716064
15:26:57,0.56665,0.243164,0.710938
15:26:57,1.215576,1.092529,0.667236
15:26:57,0.952393,1.383545,-0.094727
15:26:57,0.672363,1.29834,-0.314209
15:26:57,0.81665,1.001465,0.336426
15:26:57,0.55542,0.492676,0.623047
15:26:57,0.50293,0.220703,0.871338
15:26:57,0.48291,0.083008,0.868652
15:26:57,0.379883,0.009766,0.727051
15:26:57,0.440186,-0.016602,0.805176
15:26:57,0.487549,-0.009033,0.807373
15:26:57,0.513916,-0.004395,0.729492
15:26:57,0.706543,0.124268,0.774414
15:26:57,0.829346,0.371582,0.602783
15:26:57,0.83252,0.54248,0.365967
15:26:57,0.838867,0.493164,0.394287
15:26:57,0.797363,0.275391,0.564697
15:26:57,0.711182,0.044189,0.719727
15:26:57,0.627686,-0.09375,0.792969
15:26:57,0.569824,-0.121826,0.770264
15:26:57,0.599365,-0.061768,0.746826
15:26:57,0.648438,-0.005127,0.743408
15:26:57,0.645264,-0.010742,0.73584
15:26:57,0.658447,0.001221,0.756348
15:26:57,0.655518,0.001465,0.769043
15:26:57,0.65918,0.025879,0.759766
15:26:57,0.673828,0.075928,0.723633
15:26:57,0.673584,0.084229,0.737549
15:26:57,0.629395,-0.093506,0.971436
15:26:57,0.364258,-0.421143,1.307373
15:26:57,0.442383,-0.031738,1.131348
15:26:57,0.66333,0.469238,0.75293
15:26:57,0.858154,0.746826,0.936035
15:26:57,0.967529,0.533203,1.559326
15:26:57,1.257324,0.888672,2.267334
15:26:57,1.379883,1.387207,2.520264
15:26:57,0.903076,1.796631,1.17749
15:26:57,1.35498,2.670898,1.073486
15:26:57,1.334961,2.970947,1.461182
15:26:57,1.368164,2.169189,2.013916
15:26:57,1.515625,1.416016,3.55542
15:26:57,0.969482,1.447266,2.573486
15:26:57,-0.075195,1.404541,-0.026855
15:26:57,-0.37207,1.616699,-0.417969
15:26:57,-0.270264,1.638672,-0.002197
15:26:57,-0.527344,1.129395,-0.130371
15:26:57,-0.836914,0.811768,-0.160889
15:26:57,-1.045898,0.705322,-0.292969
15:26:57,-1.182617,0.767334,-0.168457
15:26:57,-1.322998,0.833496,0.477783
15:26:57,-1.445557,0.820068,0.804199
15:26:57,-1.254639,0.869629,0.482422
15:26:57,-0.679932,0.971924,0.754395
15:26:57,-0.083252,1.263428,0.676758
15:26:57,0.425049,1.564697,0.505859
15:26:57,0.763672,1.565918,0.384033
15:26:57,0.975342,1.35791,0.482178
15:26:57,1.052734,1.073975,0.601807
15:26:57,1.125244,0.843018,0.703369
15:26:57,1.241455,0.683105,0.853027
15:26:57,1.361816,0.520752,0.891846
15:26:57,1.443115,0.366699,0.853027
15:26:57,1.461426,0.262207,0.792725
15:26:57,1.619873,0.227051,0.861084
15:26:57,1.825928,0.284668,0.986084
15:26:57,1.706299,0.285889,0.87915
15:26:57,1.505371,0.250244,0.802734
15:26:57,1.743652,0.395264,1.060791
15:26:57,2.601563,0.899414,1.686523
15:26:57,3.249023,1.627197,1.578125
15:26:57,2.699219,2.165039,0.171631
15:26:57,1.441162,2.249756,-1.609863
15:26:57,0.389648,2.245117,-3.031006
15:26:57,0.224121,2.025879,-3.810547
15:26:57,0.613037,1.364258,-4.047607
15:26:57,-0.212402,0.820557,-5.555908
15:26:57,-1.297607,0.421631,-7.370117
15:26:57,3.092285,-0.394043,-2.849609
15:26:58,7.999756,-1.628418,3.032227
15:26:58,3.505859,-2.001465,-1.205811
15:26:58,-0.411133,-3.290039,-0.882568
15:26:58,-0.081787,-7.676025,5.605225
15:26:58,1.260986,-0.871582,1.68335
15:26:58,0.040039,-0.0896,0.805176
15:26:58,1.085938,1.749512,-0.206543
15:26:58,1.344238,3.121338,-1.376953
15:26:58,1.055908,3.54541,-1.608643
15:26:58,0.723145,2.169678,-0.357422
15:26:58,0.301514,0.802002,0.530273
15:26:58,0.411865,0.204834,0.967285
15:26:58,0.628418,-0.023438,1.18335
15:26:58,0.34668,-0.176514,0.73877
15:26:58,0.08374,-0.324707,0.69165
15:26:58,0.154053,-0.421387,1.016357
15:26:58,0.312256,-0.400635,1.054199
15:26:58,0.356445,-0.276611,0.95166
15:26:58,0.387451,-0.221924,0.889648
15:26:58,0.411133,-0.148682,0.811279
15:26:58,0.41748,-0.024902,0.703369
15:26:58,0.576416,0.175537,0.688477
15:26:58,1.144775,0.829102,0.667725
15:26:58,1.093994,1.31665,-0.007813
15:26:58,0.765869,1.241699,-0.333984
15:26:58,0.945557,0.928467,0.340088
15:26:58,0.644531,0.351807,0.671875
15:26:58,0.523438,0.09375,0.867676
15:26:58,0.468994,0.022705,0.849365
15:26:58,0.416504,0.02832,0.713379
15:26:58,0.464355,0.031738,0.744873
15:26:58,0.508057,0.056152,0.777344
15:26:58,0.57373,0.155029,0.711914
15:26:58,0.768311,0.372803,0.668457
15:26:58,0.816406,0.540771,0.455566
15:26:58,0.843262,0.577148,0.375488
15:26:58,0.770996,0.416992,0.537598
15:26:58,0.665771,0.2229,0.675293
15:26:58,0.614258,0.091553,0.747314
15:26:58,0.591797,0.050537,0.722412
15:26:58,0.619141,0.032959,0.725098
15:26:58,0.62793,0.024414,0.769775
15:26:58,0.619629,0.064209,0.799316
15:26:58,0.57251,0.087402,0.781982
15:26:58,0.565186,0.106689,0.731445
15:26:58,0.597168,0.165283,0.717041
15:26:58,0.626221,0.202637,0.71582
15:26:58,0.604248,0.215576,0.665771
15:26:58,0.613037,0.19043,0.655029
15:26:58,0.656006,0.066406,0.788818
15:26:58,0.348145,-0.413086,1.174072
15:26:58,0.200684,-0.473145,1.259766
15:26:58,0.70752,0.338867,0.890381
15:26:58,0.987549,0.892578,0.721436
15:26:58,0.949951,0.85498,1.079102
15:26:58,1.145996,0.793213,2.084717
15:26:58,1.2854,1.271729,2.606445
15:26:58,1.050293,1.69751,1.963623
15:26:58,0.735107,2.147217,0.793457
15:26:58,0.980225,2.803711,1.452148
15:26:58,1.065918,2.858154,2.010986
15:26:58,1.271484,2.022217,3.169434
15:26:58,0.82666,1.936279,2.693848
15:26:58,0.029297,2.030273,-0.182617
15:26:58,-0.543945,2.015869,-0.911865
15:26:58,-0.398682,2.080811,-0.229736
15:26:58,-0.687012,1.421631,-0.064941
15:26:58,-0.934814,0.959229,0.092529
15:26:58,-1.019775,0.732666,0.066162
15:26:58,-1.08252,0.665771,0.086914
15:26:58,-1.020264,0.632568,0.290527
15:26:58,-0.971436,0.545166,0.589844
15:26:58,-0.790527,0.487793,0.681885
15:26:58,-0.531494,0.456299,0.678955
15:26:58,-0.248535,0.527832,0.761475
15:26:58,0.151123,0.855469,0.834961
15:26:58,0.573975,1.283203,0.70166
15:26:58,0.840332,1.446045,0.514648
15:26:58,0.980713,1.318604,0.541504
15:26:58,1.072998,1.115479,0.714844
15:26:58,1.109863,0.905273,0.884521
15:26:58,1.104004,0.731689,0.989014
15:26:58,1.095703,0.625244,1.042236
15:26:58,1.137207,0.560547,1.122314
15:26:58,1.257324,0.590088,1.228271
15:26:58,1.539307,0.688232,1.364502
15:26:58,1.854492,0.831787,1.428955
15:26:58,2.091064,0.991211,1.378418
15:26:58,2.293945,1.228027,1.30957
15:26:58,2.623291,1.548096,1.270508
15:26:58,2.556641,1.945068,0.668457
15:26:58,2.049316,2.284424,-0.538574
15:26:58,1.313721,2.435059,-1.942627
15:26:58,0.692383,2.14917,-3.081787
15:26:58,0.612061,1.595215,-3.79126
15:26:58,0.757324,0.848389,-4.154297
15:26:58,0.996582,0.168945,-4.133301
15:26:58,1.57666,-0.215088,-3.859131
15:26:58,2.782959,-0.17749,-3.187744
15:26:58,3.181885,0.062988,-2.492432
15:26:59,2.97998,-0.317871,-0.328369
15:26:59,2.192383,-0.476318,1.002197
15:26:59,1.289063,-0.393799,1.116699
15:26:59,-1.605957,-3.583252,1.738281
15:26:59,-2.418457,-2.678223,-0.280273
15:26:59,1.864258,0.067139,3.633057
15:26:59,3.338867,0.070801,6.503662
15:26:59,-0.055176,1.859375,-1.086426
15:26:59,-0.594238,3.251221,-3.30542
15:26:59,1.716064,3.81665,-0.782959
15:26:59,1.348145,2.06958,0.456055
15:26:59,0.114746,0.510986,0.080078
15:26:59,0.355225,0.072754,0.753174
15:26:59,0.791016,-0.124268,1.603027
15:26:59,0.443604,-0.258057,0.914063
15:26:59,0.194336,-0.319092,0.517822
15:26:59,0.388672,-0.453613,0.996826
15:26:59,0.44043,-0.324951,0.977783
15:26:59,0.483643,-0.344238,0.750977
15:26:59,0.544678,-0.243896,0.794922
15:26:59,0.536865,-0.12793,0.788818
15:26:59,0.441895,-0.037109,0.692383
15:26:59,0.780518,0.48291,0.782959
15:26:59,0.933105,1.036377,0.476074
15:26:59,0.625244,1.223389,-0.066162
15:26:59,0.646484,1.253174,0.144531
15:26:59,0.521973,0.891602,0.51001
15:26:59,0.351807,0.518311,0.717529
15:26:59,0.367432,0.338379,0.836426
15:26:59,0.381348,0.231689,0.823486
15:26:59,0.377686,0.171143,0.791748
15:26:59,0.448486,0.172119,0.808838
15:26:59,0.538574,0.239258,0.762695
15:26:59,0.628906,0.353516,0.65332
15:26:59,0.69165,0.447266,0.573486
15:26:59,0.688232,0.441895,0.564453
15:26:59,0.696289,0.367188,0.604004
15:26:59,0.695068,0.294434,0.646484
15:26:59,0.632568,0.204834,0.708008
15:26:59,0.581787,0.160889,0.705322
15:26:59,0.610352,0.150391,0.662109
15:26:59,0.673828,0.108887,0.750488
15:26:59,0.617188,0.039551,0.784912
15:26:59,0.587646,0.04541,0.7854
15:26:59,0.542236,0.030273,0.827637
15:26:59,0.499268,0.031494,0.781738
15:26:59,0.499512,0.060303,0.874512
15:26:59,0.512207,0.118896,0.801758
15:26:59,0.570313,0.198242,0.770508
15:26:59,0.450684,-0.143066,1.049072
15:26:59,0.191162,-0.499023,1.445557
15:26:59,0.273682,0.016602,1.234863
15:26:59,0.31958,0.512451,0.685791
15:26:59,0.337891,0.430176,1.507813
15:26:59,0.516602,0.414551,1.760986
15:26:59,1.404297,1.284424,2.80835
15:26:59,1.168701,1.630615,2.439209
15:26:59,0.57666,1.865723,1.541504
15:26:59,0.5,2.790283,1.357178
15:26:59,0.763428,3.144775,1.990723
15:26:59,1.293213,2.836426,3.791748
15:26:59,0.843262,2.502197,2.848877
15:26:59,-0.501953,1.884277,-0.43042
15:26:59,-0.783936,1.505859,-0.604004
15:26:59,-0.303955,1.355225,0.576416
15:26:59,-0.486328,0.770752,0.489502
15:26:59,-0.636719,0.575195,0.294922
15:26:59,-0.772705,0.529297,-0.041504
15:26:59,-1.005615,0.567383,-0.282715
15:26:59,-1.257568,0.72583,-0.237061
15:26:59,-1.472412,0.879639,0.061523
15:26:59,-1.681152,0.904053,0.373779
15:26:59,-1.296387,0.821777,0.29126
15:26:59,-0.720947,0.71875,0.655029
15:26:59,-0.239014,0.781982,0.79126
15:26:59,0.21875,1.078857,0.816895
15:26:59,0.66748,1.425781,0.74585
15:26:59,0.94751,1.568359,0.706055
15:26:59,1.049072,1.487793,0.688721
15:26:59,1.095703,1.30127,0.767578
15:26:59,1.14209,1.093018,0.929443
15:26:59,1.187988,0.935303,1.018555
15:26:59,1.146484,0.809082,0.906494
15:26:59,1.144775,0.74585,0.877197
15:26:59,1.376709,0.818359,1.103516
15:26:59,1.5896,0.91333,1.271484
15:26:59,1.6521,0.987061,1.206055
15:26:59,1.791504,1.180176,1.122803
15:26:59,2.080811,1.623047,1.082764
15:26:59,2.155273,2.220947,0.546875
15:26:59,1.766113,2.562744,-0.698242
15:26:59,1.251709,2.61377,-2.014648
15:26:59,1.010986,2.427734,-2.967285
15:26:59,1.057617,1.690674,-3.577881
15:26:59,1.026611,0.908447,-4.028809
15:26:59,1.050781,0.287842,-4.209229
15:26:59,1.623779,0.08252,-3.996094
15:26:59,2.173828,0.297119,-3.319824
15:26:59,4.174072,0.569824,-1.159912
15:26:59,2.38501,0.069336,-0.083252
15:27:00,1.478516,-1.004395,1.78418
15:27:00,-0.187988,-8,6.288574
15:27:00,-2.317871,-0.85083,-1.61377
15:27:00,0.753662,-0.968018,2.203613
15:27:00,4.477539,1.080811,6.270996
15:27:00,0.687988,1.698486,0.390625
15:27:00,-1.201904,3.027588,-4.24292
15:27:00,1.565186,4.086426,-0.666992
15:27:00,1.423828,2.239746,0.726318
15:27:00,0.014404,0.429932,0.047363
15:27:00,0.36792,-0.062988,0.796387
15:27:00,0.97998,-0.314209,1.63623
15:27:00,0.498047,-0.416504,0.779785
15:27:00,0.151855,-0.57373,0.561523
15:27:00,0.402832,-0.813477,1.181152
15:27:00,0.466309,-0.723389,1.000244
15:27:00,0.429688,-0.454102,0.790039
15:27:00,0.453857,-0.248779,0.854492
15:27:00,0.388428,-0.093262,0.787842
15:27:00,0.371094,-0.013672,0.786377
15:27:00,0.522461,0.237305,0.785889
15:27:00,0.942383,0.948486,0.695313
15:27:00,0.906982,1.489502,0.121826
15:27:00,0.382568,1.292725,-0.311279
15:27:00,0.735107,1.066406,0.460205
15:27:00,0.45459,0.439941,0.711914
15:27:00,0.419189,0.188721,0.927246
15:27:00,0.436035,0.087158,0.947021
15:27:00,0.390381,0.046143,0.764648
15:27:00,0.418945,-0.013184,0.794678
15:27:00,0.478271,-0.03125,0.830566
15:27:00,0.494629,-0.031494,0.755615
15:27:00,0.699219,0.101563,0.794922
15:27:00,0.782227,0.393799,0.647949
15:27:00,0.756104,0.553955,0.430908
15:27:00,0.777832,0.494385,0.511475
15:27:00,0.683838,0.245117,0.667236
15:27:00,0.606934,0.044434,0.833252
15:27:00,0.562012,-0.008057,0.82373
15:27:00,0.541992,0.001221,0.82373
15:27:00,0.496094,0.035156,0.833008
15:27:00,0.446777,0.094971,0.79834
15:27:00,0.472412,0.1521,0.80835
15:27:00,0.506104,0.188965,0.798096
15:27:00,0.542725,0.225586,0.739014
15:27:00,0.591797,0.230713,0.70459
15:27:00,0.598877,0.148193,0.734863
15:27:00,0.626709,0.054199,0.835693
15:27:00,0.63916,-0.071533,1.024414
15:27:00,0.468018,-0.355469,1.242432
15:27:00,0.308838,-0.320801,1.236328
15:27:00,0.664063,0.340088,1.116943
15:27:00,0.731201,0.527832,1.10791
15:27:00,0.928467,0.683594,1.526367
15:27:00,1.662354,1.464355,3.125244
15:27:00,0.713135,1.397949,2.186279
15:27:00,0.251953,1.707275,1.241943
15:27:00,0.502197,2.512451,1.385742
15:27:00,0.817383,3.20166,1.902344
15:27:00,1.525146,2.823486,3.106934
15:27:00,1.226074,3.031006,3.087891
15:27:00,-0.006348,2.250488,0.268555
15:27:00,-0.72998,1.993408,-0.588867
15:27:00,-0.805176,1.908691,-0.092285
15:27:00,-1.013184,1.438232,0.080811
15:27:00,-1.194824,0.984619,0.175049
15:27:00,-1.205811,0.729736,0.164795
15:27:00,-1.180664,0.60083,0.097168
15:27:00,-1.12207,0.554688,0.181641
15:27:00,-1.000488,0.526855,0.365479
15:27:00,-0.808594,0.500244,0.439941
15:27:00,-0.548584,0.528076,0.381348
15:27:00,-0.209717,0.703857,0.363525
15:27:00,0.158203,1.016357,0.36377
15:27:00,0.400879,1.214355,0.293457
15:27:00,0.525146,1.17334,0.310547
15:27:00,0.662598,1.078857,0.498047
15:27:00,0.786377,1.013916,0.661865
15:27:00,0.842773,0.994385,0.784912
15:27:00,0.836182,0.976074,0.825439
15:27:00,0.769043,0.926025,0.733887
15:27:00,0.761475,0.894775,0.717773
15:27:00,0.960693,1.015625,0.960693
15:27:00,1.253418,1.238525,1.205078
15:27:00,1.235596,1.35498,1.115234
15:27:00,1.187256,1.401611,0.94873
15:27:00,1.460938,1.654053,1.165283
15:27:00,1.959229,2.230469,1.431396
15:27:00,2.063232,2.900391,0.783691
15:27:00,1.61792,3.222412,-0.507568
15:27:00,1.095459,3.080566,-1.741943
15:27:00,0.952637,2.588379,-2.42749
15:27:00,1.313965,1.889893,-2.870605
15:27:00,1.206299,1.010254,-3.534668
15:27:00,0.816406,0.321289,-4.170654
15:27:00,1.584961,0.249512,-4.040283
15:27:00,3.152832,0.719482,-3.147705
15:27:00,3.875,0.636475,-2.111328
15:27:00,2.316162,0.052979,-1.041748
15:27:00,1.340088,-0.523438,1.244385
15:27:01,0.018066,-5.020996,3.861816
15:27:01,-2.601318,-5.874756,1.074219
15:27:01,-1.606934,0.283203,-2.696777
15:27:01,2.186035,0.895508,3.288818
15:27:01,5.434326,3.962891,5.840088
15:27:01,-0.349609,2.818604,-2.626953
15:27:01,-1.148438,3.928711,-3.322754
15:27:01,1.185303,3.35498,0.641357
15:27:01,0.418945,1.168213,0.943604
15:27:01,-0.081787,0.235107,0.448242
15:27:01,0.625488,-0.065186,1.249268
15:27:01,0.439209,-0.263916,0.924072
15:27:01,0.136475,-0.436523,0.606201
15:27:01,0.119385,-0.668701,0.963623
15:27:01,0.394531,-0.954102,1.333496
15:27:01,0.375244,-0.726807,0.822266
15:27:01,0.472412,-0.507324,0.869141
15:27:01,0.437988,-0.308105,0.875977
15:27:01,0.335449,-0.148193,0.770996
15:27:01,0.36499,0.004883,0.755615
15:27:01,0.319824,0.077393,0.688232
15:27:01,0.828857,0.950195,0.826416
15:27:01,0.856689,1.699951,0.263672
15:27:01,0.380615,1.702393,-0.361328
15:27:01,0.434082,1.36084,0.155762
15:27:01,0.475586,0.768799,0.713867
15:27:01,0.369141,0.30957,0.843994
15:27:01,0.409424,0.174072,0.911377
15:27:01,0.323975,0.075195,0.761475
15:27:01,0.332764,0.003662,0.784668
15:27:01,0.437012,-0.033936,0.894531
15:27:01,0.480957,-0.04541,0.829834
15:27:01,0.525391,-0.00293,0.76123
15:27:01,0.602295,0.039063,0.793945
15:27:01,0.646973,0.146973,0.77124
15:27:01,0.815186,0.492432,0.744385
15:27:01,0.655762,0.759277,0.436279
15:27:01,0.606445,0.721924,0.4021
15:27:01,0.607666,0.474854,0.69458
15:27:01,0.517578,0.165039,0.82251
15:27:01,0.505127,0.023926,0.980713
15:27:01,0.415771,-0.012451,0.902832
15:27:01,0.388184,-0.028076,0.855713
15:27:01,0.417969,-0.044434,0.917969
15:27:01,0.410156,-0.05127,0.883789
15:27:01,0.388184,-0.035889,0.779785
15:27:01,0.479004,0.024658,0.876709
15:27:01,0.621094,0.196777,0.88501
15:27:01,0.704834,0.442871,0.747314
15:27:01,0.683594,0.493896,0.734619
15:27:01,0.274658,-0.16748,1.544678
15:27:01,-0.147705,-0.428711,1.755127
15:27:01,0.548096,0.291992,1.510498
15:27:01,1.466553,1.42041,2.505859
15:27:01,0.862305,1.675293,2.364258
15:27:01,0.269775,1.839844,1.397949
15:27:01,0.658203,2.998291,1.748291
15:27:01,1.00708,3.207275,1.852783
15:27:01,1.627686,2.682129,3.210938
15:27:01,1.178955,2.135498,3.647217
15:27:01,-0.092529,1.606934,0.422607
15:27:01,-0.822754,1.233398,-0.541748
15:27:01,-0.451172,1.551025,0.578125
15:27:01,-0.636963,1.135498,0.346191
15:27:01,-0.937744,0.827393,0.165771
15:27:01,-1.089111,0.711914,0.03833
15:27:01,-1.21875,0.671631,-0.046875
15:27:01,-1.32373,0.685791,0.022705
15:27:01,-1.355469,0.721191,0.179443
15:27:01,-1.193359,0.661377,0.359863
15:27:01,-0.872314,0.525391,0.507568
15:27:01,-0.480225,0.433594,0.574707
15:27:01,-0.136475,0.471191,0.650635
15:27:01,0.193359,0.699463,0.812256
15:27:01,0.547363,1.043945,0.781494
15:27:01,0.799072,1.25293,0.603027
15:27:01,0.953613,1.28833,0.54541
15:27:01,1.007813,1.131104,0.613281
15:27:01,0.981934,0.887939,0.739746
15:27:01,0.994873,0.69873,0.922852
15:27:01,1.158936,0.619141,1.215088
15:27:01,1.378418,0.663574,1.413818
15:27:01,1.503906,0.797119,1.369141
15:27:01,1.599854,0.958984,1.287354
15:27:01,1.704346,1.095947,1.233643
15:27:01,1.842041,1.305664,1.259277
15:27:01,2.086182,1.724609,1.333496
15:27:01,2.1604,2.206543,0.959961
15:27:01,1.869629,2.56665,-0.056885
15:27:01,1.282227,2.660645,-1.447754
15:27:01,0.807861,2.411133,-2.463623
15:27:01,0.799072,1.891602,-3.095459
15:27:01,0.897217,1.322021,-3.663574
15:27:01,0.96582,0.992188,-3.988037
15:27:01,1.48999,0.998779,-3.796387
15:27:01,2.568604,1.100586,-3.061523
15:27:01,4.359131,0.585205,-1.418213
15:27:01,2.459717,0.158691,-0.082031
15:27:01,1.205566,-0.348877,0.916748
15:27:01,1.1521,-2.911865,3.677002
15:27:02,-1.409912,-4.94043,1.921143
15:27:02,-2.00708,-1.469727,-2.573975
15:27:02,-0.311279,-0.513184,-0.41626
15:27:02,5.054443,2.120361,6.39917
15:27:02,1.889893,2.493896,1.915039
15:27:02,-1.508301,2.449463,-3.751465
15:27:02,0.887207,2.987061,-0.986328
15:27:02,1.45752,1.509766,1.145264
15:27:02,0.542236,0.060059,0.702393
15:27:02,0.814209,-0.427246,1.180664
15:27:02,0.780762,-0.649902,1.040771
15:27:02,0.510986,-0.801025,0.470703
15:27:02,0.856689,-0.906738,0.817383
15:27:02,0.799072,-0.622803,0.855469
15:27:02,0.577637,-0.286865,0.701172
15:27:02,0.585205,-0.085693,0.770752
15:27:02,0.549561,0.184326,0.68457
15:27:02,0.754639,0.86499,0.650635
15:27:02,0.784424,1.43335,0.278076
15:27:02,0.208496,1.155762,-0.139648
15:27:02,0.428223,0.893066,0.57251
15:27:02,0.40625,0.465332,0.892334
15:27:02,0.421143,0.30249,0.863281
15:27:02,0.423584,0.267822,0.772705
15:27:02,0.393799,0.25,0.749268
15:27:02,0.38501,0.259766,0.767822
15:27:02,0.421631,0.287842,0.727295
15:27:02,0.478027,0.316406,0.723145
15:27:02,0.552734,0.360352,0.689941
15:27:02,0.625,0.399902,0.640137
15:27:02,0.648438,0.41748,0.600342
15:27:02,0.685303,0.379883,0.577148
15:27:02,0.719238,0.2854,0.645996
15:27:02,0.713623,0.222168,0.719482
15:27:02,0.701172,0.215088,0.703613
15:27:02,0.65625,0.214844,0.689209
15:27:02,0.607422,0.227783,0.71582
15:27:02,0.616943,0.279053,0.70752
15:27:02,0.619385,0.29248,0.671387
15:27:02,0.57251,0.220459,0.735107
15:27:02,0.538818,0.142578,0.813965
15:27:02,0.548584,0.093262,0.767334
15:27:02,0.57373,0.064697,0.80249
15:27:02,0.621338,0.04541,0.790771
15:27:02,0.679443,0.098877,0.760254
15:27:02,0.78125,0.206787,0.740967
15:27:02,0.797119,0.255859,0.704102
15:27:02,0.757324,0.243652,0.777344
15:27:02,0.651611,0.134033,0.93335
15:27:02,0.581787,-0.011475,1.239014
15:27:02,0.336914,-0.221436,1.875732
15:27:02,0.006836,-0.34668,1.9104
15:27:02,0.5354,0.189941,1.859619
15:27:02,1.457031,2.189209,2.503662
15:27:02,0.51123,2.304199,1.086182
15:27:02,0.631836,2.942383,1.052734
15:27:02,0.616211,3.124756,1.669189
15:27:02,0.669922,1.976563,2.389893
15:27:02,1.090332,1.52124,4.311279
15:27:02,0.685791,1.708008,2.552979
15:27:02,-0.305176,1.550293,-0.094971
15:27:02,-0.524902,1.573975,0.006592
15:27:02,-0.509521,1.510498,0.441162
15:27:02,-0.746582,1.139648,0.325439
15:27:02,-0.874023,0.907471,0.258057
15:27:02,-1.010986,0.795166,0.122803
15:27:02,-1.116699,0.768799,0.281982
15:27:02,-1.071045,0.753906,0.541504
15:27:02,-0.862061,0.728027,0.452393
15:27:02,-0.550049,0.703369,0.474854
15:27:02,-0.268311,0.662842,0.59668
15:27:02,0.01001,0.713623,0.676758
15:27:02,0.330322,0.889648,0.708496
15:27:02,0.611816,1.049561,0.700684
15:27:02,0.771484,1.023438,0.688721
15:27:02,0.864258,0.908936,0.720703
15:27:02,0.875488,0.731689,0.734375
15:27:02,0.919678,0.631836,0.731934
15:27:02,0.948486,0.486084,0.81665
15:27:02,0.971436,0.342041,0.892822
15:27:02,1.207764,0.301025,1.105713
15:27:02,1.654785,0.387695,1.445557
15:27:02,2.09668,0.503906,1.564453
15:27:02,2.39209,0.652832,1.400146
15:27:02,2.604492,0.792725,1.129395
15:27:02,2.845215,0.842285,1.093262
15:27:02,3.141113,1.003906,1.135742
15:27:02,3.01001,1.351074,0.580811
15:27:02,2.319824,1.654053,-0.569336
15:27:02,1.224365,1.770996,-1.913574
15:27:02,0.337646,1.820313,-3.170166
15:27:02,0.207275,1.801514,-4.116455
15:27:02,0.712646,1.832275,-4.322998
15:27:02,1.218506,1.590576,-4.08374
15:27:02,1.354248,1.119873,-3.713135
15:27:02,2.72998,0.752441,-1.844727
15:27:02,4.095703,-0.8479,0.63623
15:27:02,2.213135,-3.124512,1.724121
15:27:02,0.40918,-4.175293,2.257568
15:27:02,-2.829346,-3.390869,-0.581543
15:27:03,0.464844,0.104004,-0.226563
15:27:03,5.146484,1.940186,4.963379
15:27:03,3.049072,3.096436,1.437744
15:27:03,-1.089111,3.024658,-3.308838
15:27:03,0.5896,2.76416,-1.473389
15:27:03,1.468262,1.303711,1.277344
15:27:03,0.679199,0.108398,1.228027
15:27:03,0.691162,-0.29541,1.148193
15:27:03,0.296387,-0.389893,0.468506
15:27:03,0.486572,-0.584229,0.763184
15:27:03,0.641602,-0.7854,1.070068
15:27:03,0.508545,-0.669434,0.824463
15:27:03,0.559082,-0.44165,0.800049
15:27:03,0.570557,-0.235596,0.782959
15:27:03,0.526611,-0.05957,0.683838
15:27:03,0.52002,0.054932,0.625244
15:27:03,1.127686,0.929932,0.708984
15:27:03,0.965088,1.464111,0.043945
15:27:03,0.523926,1.219238,-0.247559
15:27:03,0.70459,0.833252,0.525391
15:27:03,0.564697,0.328125,0.895508
15:27:03,0.44043,0.126953,0.832031
15:27:03,0.437744,0.10791,0.759033
15:27:03,0.424561,0.103027,0.758789
15:27:03,0.459229,0.118652,0.769043
15:27:03,0.512207,0.203125,0.71582
15:27:03,0.648682,0.373047,0.697021
15:27:03,0.750732,0.588867,0.529785
15:27:03,0.751953,0.614502,0.388184
15:27:03,0.746338,0.420654,0.552734
15:27:03,0.69873,0.18457,0.680176
15:27:03,0.655273,0.044434,0.719482
15:27:03,0.624512,0.013916,0.734863
15:27:03,0.667236,0.093506,0.691895
15:27:03,0.704102,0.278076,0.663818
15:27:03,0.666016,0.325684,0.590576
15:27:03,0.632813,0.227295,0.672119
15:27:03,0.603027,0.067139,0.779053
15:27:03,0.575195,-0.018555,0.817139
15:27:03,0.526855,-0.054932,0.781738
15:27:03,0.500732,-0.084473,0.826416
15:27:03,0.552246,-0.061768,0.839844
15:27:03,0.64917,0.065186,0.770752
15:27:03,0.739746,0.23999,0.698975
15:27:03,0.733887,0.307617,0.605713
15:27:03,0.714844,0.257568,0.62915
15:27:03,0.597656,-0.145508,1.05542
15:27:03,0.389404,-0.499756,1.502197
15:27:03,0.546143,-0.02417,1.288086
15:27:03,0.855225,0.638916,0.89209
15:27:03,1.165039,0.859131,1.45459
15:27:03,1.828125,1.326904,2.869629
15:27:03,1.579834,1.789551,2.991211
15:27:03,0.496826,1.578125,1.322998
15:27:03,0.75708,2.271484,1.798096
15:27:03,1.15625,2.684326,2.462402
15:27:03,1.549805,2.095459,3.100098
15:27:03,1.128906,2.215088,3.252686
15:27:03,0.084961,1.600586,0.396729
15:27:03,-0.544922,1.46875,-0.389404
15:27:03,-0.387939,1.618896,0.166992
15:27:03,-0.62085,1.239502,0.090332
15:27:03,-0.84082,0.932861,0.075439
15:27:03,-0.983643,0.755371,-0.067383
15:27:03,-1.111084,0.712158,-0.059326
15:27:03,-1.315918,0.663574,0.351563
15:27:03,-1.355225,0.577148,0.523193
15:27:03,-1.103027,0.563965,0.462402
15:27:03,-0.658447,0.579346,0.694336
15:27:03,-0.22876,0.652832,0.912109
15:27:03,0.163086,0.932617,0.881592
15:27:03,0.526367,1.223145,0.725342
15:27:03,0.779053,1.289795,0.586426
15:27:03,0.953857,1.186279,0.589111
15:27:03,1.102295,1.00708,0.718018
15:27:03,1.198486,0.788086,0.854248
15:27:03,1.275391,0.589844,0.953125
15:27:03,1.319092,0.421387,0.996582
15:27:03,1.310059,0.270508,0.929932
15:27:03,1.453613,0.261719,0.924316
15:27:03,1.823486,0.43335,1.127686
15:27:03,2.154297,0.632568,1.21167
15:27:03,2.29126,0.76001,1.230713
15:27:03,2.206299,0.840332,1.224854
15:27:03,2.313232,1.089844,1.375977
15:27:03,2.363525,1.601563,1.091064
15:27:03,2.04541,2.124023,0.033203
15:27:03,1.430908,2.385986,-1.339844
15:27:03,0.718994,2.376953,-2.654297
15:27:03,0.486328,2.108887,-3.484375
15:27:03,0.602783,1.717773,-4.096436
15:27:03,0.47168,0.999268,-4.466309
15:27:03,0.562744,0.549316,-4.344727
15:27:03,1.387207,1.054443,-4.187256
15:27:03,4.790527,1.237305,-1.190186
15:27:03,4.007568,0.33374,0.941406
15:27:03,1.557129,-1.451416,0.076416
15:27:03,-2.003906,-5.454102,1.003174
15:27:03,-1.52417,-3.925537,1.195068
15:27:03,2.886475,-0.871338,2.574707
15:27:04,4.06543,1.134277,2.894775
15:27:04,1.229004,3.558105,-1.460205
15:27:04,0.103271,4.071045,-3.260498
15:27:04,1.331543,2.946777,-0.53418
15:27:04,0.962646,0.891113,0.994873
15:27:04,0.401611,-0.198486,1.150146
15:27:04,0.656982,-0.35083,1.364502
15:27:04,0.249268,-0.362793,0.467773
15:27:04,0.212891,-0.598389,0.641602
15:27:04,0.431152,-0.86084,1.31665
15:27:04,0.218262,-0.708008,0.947021
15:27:04,0.292725,-0.458496,0.838135
15:27:04,0.345215,-0.289063,0.9021
15:27:04,0.311768,-0.145752,0.790283
15:27:04,0.328369,-0.030273,0.734131
15:27:04,0.382324,0.094727,0.767822
15:27:04,0.533203,0.345215,0.67041
15:27:04,1.371094,1.510254,0.650635
15:27:04,0.567871,1.434326,-0.479004
15:27:04,0.792236,1.279297,-0.089844
15:27:04,0.824219,0.692627,0.540283
15:27:04,0.654297,0.174072,0.831055
15:27:04,0.555664,-0.053467,0.911865
15:27:04,0.45874,-0.105469,0.724609
15:27:04,0.499756,-0.136475,0.712891
15:27:04,0.579346,-0.131348,0.797363
15:27:04,0.585938,-0.114258,0.720703
15:27:04,0.736572,0.02417,0.74707
15:27:04,0.921631,0.403076,0.647217
15:27:04,0.83374,0.691406,0.285645
15:27:04,0.7771,0.613281,0.324219
15:27:04,0.784668,0.274658,0.65625
15:27:04,0.634277,-0.048828,0.804199
15:27:04,0.568359,-0.118164,0.868408
15:27:04,0.508789,-0.057373,0.770264
15:27:04,0.558594,0.060547,0.77124
15:27:04,0.581055,0.185547,0.719727
15:27:04,0.583008,0.201172,0.710693
15:27:04,0.614502,0.146973,0.767822
15:27:04,0.625977,0.124023,0.730225
15:27:04,0.625732,0.140625,0.71875
15:27:04,0.640869,0.123535,0.734375
15:27:04,0.640625,0.080566,0.731934
15:27:04,0.63501,-0.089111,0.933105
15:27:04,0.419922,-0.376953,1.1604
15:27:04,0.435059,-0.135986,1.108643
15:27:04,0.668701,0.354004,1.074219
15:27:04,0.784912,0.666016,0.959229
15:27:04,0.906982,0.643555,1.013916
15:27:04,1.740479,1.248047,2.449707
15:27:04,1.52124,1.375,3.065674
15:27:04,0.764404,1.52832,1.789795
15:27:04,0.792969,2.191406,1.589111
15:27:04,1.242676,2.764893,1.930664
15:27:04,1.616943,2.359131,2.907227
15:27:04,1.44873,2.343018,3.188721
15:27:04,0.369629,2.085205,0.898193
15:27:04,-0.534912,1.622803,-0.503174
15:27:04,-0.5979,1.768311,0.100586
15:27:04,-0.647705,1.307861,0.28833
15:27:04,-0.834473,0.93457,0.376953
15:27:04,-0.915527,0.773193,0.352783
15:27:04,-1.015869,0.67041,0.20459
15:27:04,-1.131104,0.615479,0.268066
15:27:04,-1.276611,0.545654,0.379395
15:27:04,-1.166504,0.530273,0.337891
15:27:04,-0.758545,0.575684,0.520264
15:27:04,-0.30957,0.694092,0.823242
15:27:04,0.080078,0.898438,0.821777
15:27:04,0.395996,1.206787,0.652588
15:27:04,0.583496,1.266113,0.471924
15:27:04,0.7771,1.201172,0.518066
15:27:04,0.917725,1.062256,0.661133
15:27:04,1.01123,0.870361,0.797363
15:27:04,1.101807,0.69165,0.942383
15:27:04,1.177734,0.582031,1.014648
15:27:04,1.236084,0.505371,0.97876
15:27:04,1.463623,0.575684,1.033936
15:27:04,1.836426,0.760986,1.240967
15:27:04,2.083008,0.890869,1.259521
15:27:04,2.096436,0.999756,1.111328
15:27:04,2.206055,1.212402,1.233643
15:27:04,2.420898,1.641602,1.357422
15:27:04,2.235352,2.074463,0.736572
15:27:04,1.628174,2.348633,-0.608643
15:27:04,1.006104,2.445557,-1.899658
15:27:04,0.662354,2.247314,-2.887451
15:27:04,0.72583,1.75293,-3.57373
15:27:04,0.94165,1.233154,-3.882324
15:27:04,1.304199,0.922363,-3.958252
15:27:04,2.029053,0.664063,-3.464111
15:27:04,2.748779,0.712891,-2.779785
15:27:04,3.374023,0.862549,-1.353027
15:27:04,2.473389,0.481934,0.14209
15:27:04,1.27832,-0.988281,0.909912
15:27:04,0.834961,-4.647949,2.337158
15:27:04,-2.154785,-3.82959,0.685303
15:27:04,-0.012207,-0.953369,0.277588
15:27:04,3.194092,-0.952637,4.393799
15:27:04,2.805176,1.776123,2.390869
15:27:05,-0.44751,2.637207,-2.137207
15:27:05,0.411865,3.528076,-2.134766
15:27:05,1.642578,2.650635,0.381104
15:27:05,0.709717,0.952148,0.539063
15:27:05,0.351318,0.095459,0.611816
15:27:05,0.854492,-0.246582,1.363037
15:27:05,0.543213,-0.373779,0.859619
15:27:05,0.321045,-0.499268,0.588623
15:27:05,0.552002,-0.666992,1.050293
15:27:05,0.524902,-0.561035,0.922119
15:27:05,0.470947,-0.318115,0.74292
15:27:05,0.519775,-0.147461,0.838135
15:27:05,0.471436,0.005127,0.746582
15:27:05,0.451416,0.15918,0.666748
15:27:05,0.875244,0.831543,0.695801
15:27:05,0.980713,1.471436,0.237305
15:27:05,0.438721,1.16333,-0.2146
15:27:05,0.729004,0.900879,0.525146
15:27:05,0.551025,0.395752,0.79126
15:27:05,0.472412,0.176514,0.830322
15:27:05,0.4729,0.105225,0.813721
15:27:05,0.42334,0.071533,0.731445
15:27:05,0.489258,0.060303,0.783447
15:27:05,0.506836,0.068115,0.762451
15:27:05,0.628906,0.194336,0.716797
15:27:05,0.748535,0.491699,0.646729
15:27:05,0.688965,0.597168,0.412842
15:27:05,0.73291,0.474121,0.505615
15:27:05,0.695557,0.207031,0.661377
15:27:05,0.678711,0.006348,0.756104
15:27:05,0.629883,-0.039063,0.77417
15:27:05,0.646729,0.080566,0.736328
15:27:05,0.664551,0.198242,0.673096
15:27:05,0.630615,0.178955,0.704834
15:27:05,0.572754,0.081299,0.772217
15:27:05,0.56543,-0.001709,0.77124
15:27:05,0.582031,0.0271,0.788574
15:27:05,0.62085,0.129395,0.783203
15:27:05,0.6521,0.2229,0.712402
15:27:05,0.616455,0.224121,0.669922
15:27:05,0.592285,0.125488,0.713135
15:27:05,0.623779,0.072998,0.787109
15:27:05,0.61499,-0.030518,0.924072
15:27:05,0.5,-0.267822,1.145752
15:27:05,0.456787,-0.127441,1.15918
15:27:05,0.686768,0.446045,1.035645
15:27:05,0.815186,0.645996,1.182861
15:27:05,0.864258,0.629883,1.668945
15:27:05,1.304443,1.079102,2.672363
15:27:05,1.095459,1.527344,2.715088
15:27:05,0.390869,1.758057,1.332764
15:27:05,0.688232,2.522949,1.647949
15:27:05,0.906738,2.765137,1.672607
15:27:05,1.445313,2.039551,2.911133
15:27:05,1.206299,2.145264,3.479736
15:27:05,0.141357,1.427979,0.671387
15:27:05,-0.449707,1.484619,-0.116211
15:27:05,-0.243652,1.541992,0.473877
15:27:05,-0.396729,1.108643,0.593018
15:27:05,-0.59375,0.782227,0.516357
15:27:05,-0.719971,0.588379,0.261475
15:27:05,-0.909668,0.484375,-0.02002
15:27:05,-1.071777,0.552734,0.102539
15:27:05,-1.158691,0.712891,0.430176
15:27:05,-1.213135,0.84668,0.515381
15:27:05,-1.107422,0.984863,0.427734
15:27:05,-0.687744,1.155273,0.461914
15:27:05,-0.17749,1.221924,0.519287
15:27:05,0.174316,1.125977,0.532227
15:27:05,0.428955,0.992188,0.649414
15:27:05,0.669189,0.904297,0.829102
15:27:05,0.906982,0.851318,0.960693
15:27:05,1.097168,0.786133,0.978027
15:27:05,1.244385,0.710205,0.999268
15:27:05,1.374268,0.624756,1.000732
15:27:05,1.385986,0.49585,0.8396
15:27:05,1.377441,0.391602,0.678223
15:27:05,1.610352,0.420654,0.825684
15:27:05,1.951904,0.571533,1.054688
15:27:05,2.129639,0.577637,1.240723
15:27:05,2.151611,0.543457,1.338379
15:27:05,2.429443,0.772461,1.605957
15:27:05,2.64209,1.293213,1.474854
15:27:05,2.53125,1.959229,0.762451
15:27:05,1.806396,2.313965,-0.623047
15:27:05,0.87207,2.482178,-1.925049
15:27:05,0.499268,2.376953,-2.902344
15:27:05,0.620117,1.997314,-3.42334
15:27:05,0.640137,1.525391,-3.768066
15:27:05,1.213867,1.264648,-3.422363
15:27:05,1.781738,0.973633,-2.943604
15:27:05,2.376221,0.936035,-2.171143
15:27:05,2.400635,1.463623,-1.29541
15:27:05,1.64502,0.656006,0.099121
15:27:05,2.399902,-3.641113,2.596924
15:27:05,0.434082,-5.812744,1.752441
15:27:05,-2.455811,-2.386475,-1.876953
15:27:05,1.419922,-0.697998,1.570801
15:27:05,4.55835,-0.22583,5.96875
15:27:05,1.502686,2.831787,0.243652
15:27:06,-1.079102,3.348633,-3.406982
15:27:06,0.965088,3.848145,-1.416748
15:27:06,1.376709,1.921143,0.967285
15:27:06,0.213379,0.259277,0.429199
15:27:06,0.61377,-0.107178,1.039795
15:27:06,0.845947,-0.40625,1.375977
15:27:06,0.232666,-0.501465,0.429199
15:27:06,0.440674,-0.784424,0.817627
15:27:06,0.669434,-0.924805,1.142822
15:27:06,0.527344,-0.705322,0.740967
15:27:06,0.503906,-0.419189,0.816895
15:27:06,0.463867,-0.217041,0.794189
15:27:06,0.413086,-0.006348,0.750488
15:27:06,0.320557,0.044922,0.656494
15:27:06,0.939453,1.023682,0.85083
15:27:06,0.877441,1.622803,0.208984
15:27:06,0.375977,1.550293,-0.393555
15:27:06,0.508057,1.217529,0.220215
15:27:06,0.509766,0.620361,0.720703
15:27:06,0.455811,0.230225,0.872559
15:27:06,0.475342,0.096924,0.848389
15:27:06,0.417725,0.003662,0.687256
15:27:06,0.475586,-0.045654,0.77832
15:27:06,0.561035,-0.075439,0.852539
15:27:06,0.588379,-0.048096,0.751465
15:27:06,0.629395,0.007324,0.732422
15:27:06,0.802979,0.276611,0.741455
15:27:06,0.882568,0.7229,0.54126
15:27:06,0.678955,0.74585,0.264893
15:27:06,0.754395,0.557861,0.524658
15:27:06,0.636475,0.179199,0.684326
15:27:06,0.595215,-0.021729,0.802979
15:27:06,0.544678,-0.063965,0.827148
15:27:06,0.579834,0.014648,0.778564
15:27:06,0.578125,0.177979,0.779785
15:27:06,0.578125,0.21875,0.734619
15:27:06,0.562988,0.161865,0.730469
15:27:06,0.558105,0.081787,0.82373
15:27:06,0.624756,0.103271,0.794678
15:27:06,0.561523,0.129883,0.710449
15:27:06,0.528076,0.105469,0.689453
15:27:06,0.57373,-0.112793,0.934326
15:27:06,0.44873,-0.395508,1.259521
15:27:06,0.477295,0.019531,1.0979
15:27:06,0.466309,0.39917,0.818848
15:27:06,0.419922,0.253906,1.162354
15:27:06,0.315186,-0.065674,1.439209
15:27:06,0.802734,0.43335,1.239258
15:27:06,1.804688,1.498779,2.387939
15:27:06,1.299561,1.44458,2.557861
15:27:06,0.288818,1.148438,1.810547
15:27:06,0.598389,1.990234,2.257568
15:27:06,1.358643,2.869873,2.164063
15:27:06,2.005859,3.018555,2.555908
15:27:06,1.56665,2.641357,3.037842
15:27:06,0.158447,1.939697,1.266357
15:27:06,-0.649902,1.187988,-0.3125
15:27:06,-0.554932,1.567871,0.388916
15:27:06,-0.467041,1.421875,0.423584
15:27:06,-0.773682,1.024902,0.095215
15:27:06,-0.838867,0.797852,-0.025146
15:27:06,-0.878906,0.69458,-0.155273
15:27:06,-0.905029,0.655518,0.022705
15:27:06,-0.817139,0.656738,0.289795
15:27:06,-0.687988,0.626709,0.365967
15:27:06,-0.531494,0.622314,0.181152
15:27:06,-0.329834,0.645996,0.246094
15:27:06,-0.107422,0.685547,0.429443
15:27:06,0.117676,0.86084,0.551514
15:27:06,0.352539,1.050781,0.556641
15:27:06,0.54126,1.168701,0.516602
15:27:06,0.675049,1.147705,0.595703
15:27:06,0.781494,1.052246,0.737061
15:27:06,0.896973,0.975342,0.887207
15:27:06,1.016357,0.912842,0.972656
15:27:06,1.151855,0.913818,1.062256
15:27:06,1.331055,0.984619,1.142578
15:27:06,1.505615,1.125488,1.148193
15:27:06,1.590576,1.286865,1.02832
15:27:06,1.660645,1.376709,0.922852
15:27:06,1.951172,1.495605,1.199707
15:27:06,2.451904,1.841553,1.557617
15:27:06,2.567139,2.320801,1.025391
15:27:06,1.812744,2.541748,-0.545166
15:27:06,0.781982,2.524658,-2.176514
15:27:06,0.238281,2.375977,-3.436279
15:27:06,0.258301,1.787598,-4.194336
15:27:06,0.33667,1.024902,-4.578857
15:27:06,0.730957,0.703857,-4.25708
15:27:06,2.096924,0.692871,-3.338135
15:27:06,4.439697,0.858887,-1.635742
15:27:06,3.186523,0.547607,-1.123047
15:27:06,1.349854,-0.470947,0.104492
15:27:06,1.308105,-0.985352,1.349609
15:27:06,-0.965088,-7.892578,4.148682
15:27:06,-1.669434,-2.028809,-0.851074
15:27:06,-0.260254,-0.821777,0.220947
15:27:06,5.468994,3.136963,5.561768
15:27:06,2.339844,3.788574,0.626709
15:27:06,-1.258301,3.313965,-4.023682
15:27:07,0.661621,2.945801,-0.771484
15:27:07,1.251953,1.362305,1.256104
15:27:07,0.528076,0.036621,0.958984
15:27:07,0.645996,-0.391357,1.087646
15:27:07,0.478516,-0.57373,0.649658
15:27:07,0.460938,-0.954834,0.584473
15:27:07,0.782715,-1.30542,1.017578
15:27:07,0.723633,-1.068359,0.854004
15:27:07,0.567627,-0.566406,0.740234
15:27:07,0.484131,-0.296631,0.790527
15:27:07,0.410156,-0.0979,0.683594
15:27:07,0.405029,0.032227,0.682129
15:27:07,0.626709,0.553467,0.703125
15:27:07,1.161865,1.797852,0.457764
15:27:07,0.287354,1.560547,-0.492676
15:27:07,0.481445,1.353027,0.148926
15:27:07,0.492676,0.734619,0.761963
15:27:07,0.358398,0.297852,0.848145
15:27:07,0.452637,0.174072,0.907471
15:27:07,0.392334,0.114746,0.741943
15:27:07,0.414307,0.052734,0.74292
15:27:07,0.474121,0.030762,0.809326
15:27:07,0.501465,0.037109,0.779297
15:27:07,0.564697,0.054443,0.728271
15:27:07,0.794434,0.355469,0.749268
15:27:07,0.763672,0.592285,0.447754
15:27:07,0.765625,0.632324,0.394287
15:27:07,0.773193,0.386719,0.566406
15:27:07,0.710205,0.080322,0.760254
15:27:07,0.674072,-0.043701,0.786865
15:27:07,0.663574,0.037109,0.742432
15:27:07,0.6521,0.182861,0.704102
15:27:07,0.61792,0.187012,0.690674
15:27:07,0.587158,0.082764,0.731689
15:27:07,0.548584,0.019775,0.822998
15:27:07,0.509521,0.011719,0.870361
15:27:07,0.541504,0.086426,0.798584
15:27:07,0.579346,0.219238,0.75708
15:27:07,0.585693,0.28833,0.661621
15:27:07,0.548584,0.208008,0.675537
15:27:07,0.505615,-0.163086,1.030762
15:27:07,0.327148,-0.515625,1.320801
15:27:07,0.4646,0.108887,0.921875
15:27:07,0.737305,0.504639,0.882568
15:27:07,0.68042,0.27124,1.080322
15:27:07,0.598633,-0.042725,1.283447
15:27:07,1.130371,0.642822,1.277588
15:27:07,2.243164,1.686279,2.635498
15:27:07,1.388672,1.308594,2.417725
15:27:07,0.131348,0.38501,2.177734
15:27:07,0.749023,1.468262,2.62793
15:27:07,1.553467,2.904541,1.883545
15:27:07,2.20459,3.115479,2.573486
15:27:07,1.524658,2.895996,2.713867
15:27:07,-0.083252,1.75708,0.465332
15:27:07,-0.846924,1.36499,-0.216797
15:27:07,-0.675537,1.466553,0.374023
15:27:07,-0.638428,1.144775,0.310547
15:27:07,-0.8479,0.796875,0.096191
15:27:07,-0.976563,0.675537,0.005371
15:27:07,-1.070068,0.654297,0.02124
15:27:07,-1.173828,0.703857,0.1521
15:27:07,-1.239258,0.765869,0.232422
15:27:07,-1.138672,0.777344,0.247803
15:27:07,-0.80249,0.769531,0.29126
15:27:07,-0.423096,0.714844,0.51416
15:27:07,-0.093506,0.737549,0.619873
15:27:07,0.227295,0.932861,0.719727
15:27:07,0.610107,1.231445,0.736816
15:27:07,0.847656,1.429199,0.603271
15:27:07,0.969238,1.458008,0.553955
15:27:07,0.987793,1.253418,0.555664
15:27:07,1.019775,1.019043,0.714111
15:27:07,1.123779,0.891113,0.904785
15:27:07,1.281006,0.843018,1.096924
15:27:07,1.520508,0.89917,1.22583
15:27:07,1.650879,0.927734,1.248047
15:27:07,1.721924,0.967529,1.092529
15:27:07,2.068604,1.240479,1.222656
15:27:07,2.653076,1.697754,1.622559
15:27:07,2.528564,2.047119,1.150879
15:27:07,1.709717,2.243896,-0.061768
15:27:07,0.760742,2.375732,-1.470459
15:27:07,0.184814,2.637207,-2.774658
15:27:07,0.602539,2.475098,-3.463379
15:27:07,0.885742,1.731445,-3.881592
15:27:07,0.922119,1.056641,-4.07251
15:27:07,1.331055,0.748779,-3.751221
15:27:07,1.865234,0.781982,-3.275879
15:27:07,2.822266,1.18457,-1.927002
15:27:07,2.916504,0.800049,0.272461
15:27:07,1.815186,-0.78418,0.873779
15:27:07,0.107422,-4.780029,0.931885
15:27:07,-1.995361,-7.051025,1.519775
15:27:07,0.55835,-0.731445,1.028564
15:27:07,3.34082,-0.272461,3.695557
15:27:07,3.439453,3.320068,1.54834
15:27:07,-0.084473,3.648193,-2.9729
15:27:07,-0.092285,3.795166,-2.490967
15:27:07,1.237305,2.562744,0.891846
15:27:08,0.277344,0.812988,0.75
15:27:08,0.149902,0.172852,0.722168
15:27:08,0.645508,-0.119629,1.462891
15:27:08,0.370361,-0.256592,0.850586
15:27:08,0.020996,-0.424316,0.495361
15:27:08,0.11792,-0.665527,1.156494
15:27:08,0.078857,-0.765381,1.240479
15:27:08,0.149414,-0.579834,0.893066
15:27:08,0.334961,-0.384521,0.951904
15:27:08,0.320068,-0.229248,0.898926
15:27:08,0.245361,-0.083496,0.749756
15:27:08,0.267578,0.01709,0.752197
15:27:08,0.305176,0.077148,0.745605
15:27:08,0.812744,0.80957,0.800049
15:27:08,1.067139,1.619141,0.331787
15:27:08,0.596191,1.658691,-0.425049
15:27:08,0.554688,1.307373,-0.090088
15:27:08,0.691895,0.74585,0.600098
15:27:08,0.513184,0.223145,0.782227
15:27:08,0.556885,0.04248,0.973389
15:27:08,0.421875,-0.057129,0.785889
15:27:08,0.411621,-0.114258,0.762939
15:27:08,0.532959,-0.125244,0.895264
15:27:08,0.510742,-0.077393,0.796631
15:27:08,0.505127,-0.000488,0.780762
15:27:08,0.580566,0.09375,0.797119
15:27:08,0.707764,0.384033,0.748535
15:27:08,0.823486,0.8479,0.523926
15:27:08,0.593018,0.842529,0.202881
15:27:08,0.672852,0.614502,0.512207
15:27:08,0.555664,0.198486,0.784668
15:27:08,0.553467,-0.053955,0.978271
15:27:08,0.470947,-0.123779,0.89624
15:27:08,0.406494,-0.11499,0.836914
15:27:08,0.431152,-0.121094,0.912354
15:27:08,0.496338,-0.000244,0.898193
15:27:08,0.636475,0.345703,0.782471
15:27:08,0.611816,0.524414,0.539795
15:27:08,0.622314,0.428955,0.57666
15:27:08,0.380859,-0.477295,1.396973
15:27:08,0.109863,-0.679443,1.508789
15:27:08,0.297363,0.190918,0.856689
15:27:08,0.587646,0.675781,0.84668
15:27:08,0.513184,0.349365,1.331787
15:27:08,0.434326,0.154297,1.195068
15:27:08,1.289795,1.038086,1.719971
15:27:08,1.83252,1.73877,2.642822
15:27:08,0.751709,1.230225,1.698242
15:27:08,0.295166,1.15918,1.541992
15:27:08,0.63208,1.887695,2.103027
15:27:08,1.116211,2.629639,2.090088
15:27:08,1.665527,2.568604,2.559814
15:27:08,1.296387,2.300293,2.60791
15:27:08,0.349854,2.062988,1.323975
15:27:08,-0.477295,1.531006,-0.263428
15:27:08,-0.489014,1.793213,0.181152
15:27:08,-0.605713,1.429199,0.17334
15:27:08,-0.859131,1.028809,0.009033
15:27:08,-0.960449,0.775146,-0.026367
15:27:08,-0.997314,0.65332,-0.097168
15:27:08,-1.014404,0.616943,0.111084
15:27:08,-0.914307,0.582031,0.450195
15:27:08,-0.802979,0.500732,0.508789
15:27:08,-0.615723,0.396973,0.417236
15:27:08,-0.396729,0.342041,0.479736
15:27:08,-0.132813,0.379883,0.71582
15:27:08,0.198242,0.627686,0.964355
15:27:08,0.542236,1.087891,0.892334
15:27:08,0.705811,1.419434,0.571777
15:27:08,0.766602,1.499756,0.452393
15:27:08,0.820068,1.390625,0.608887
15:27:08,0.790039,1.155762,0.795166
15:27:08,0.75293,0.922119,0.950684
15:27:08,0.844238,0.79248,1.124023
15:27:08,1.097656,0.875488,1.29541
15:27:08,1.403076,1.121826,1.366699
15:27:08,1.670654,1.36792,1.297363
15:27:08,1.966797,1.58374,1.312012
15:27:08,2.198242,1.813477,1.406738
15:27:08,2.354492,2.190186,1.327148
15:27:08,2.1604,2.657227,0.53418
15:27:08,1.359375,2.837646,-1.074463
15:27:08,0.587402,2.654785,-2.569336
15:27:08,0.345459,2.109863,-3.393799
15:27:08,0.758545,1.542969,-3.914307
15:27:08,0.599365,0.955078,-4.403076
15:27:08,1.133545,0.639404,-4.098633
15:27:08,2.300537,0.692627,-3.155029
15:27:08,3.428467,0.869629,-1.947998
15:27:08,3.056396,0.516602,-0.595703
15:27:08,2.040283,-0.291016,0.381592
15:27:08,1.119141,-4.991699,3.545166
15:27:08,-2.062988,-4.341064,0.827393
15:27:08,-1.75,-1.552002,-1.153809
15:27:08,4.481934,0.795166,3.947754
15:27:08,4.716064,2.275391,3.487061
15:27:08,-0.19458,2.947998,-2.365723
15:27:08,-0.317627,3.234131,-2.772217
15:27:08,1.694336,2.192383,0.420654
15:27:08,1.119385,0.550293,1.353271
15:27:09,0.475098,-0.280273,1.100586
15:27:09,0.605957,-0.397705,1.046875
15:27:09,0.270996,-0.383789,0.528809
15:27:09,0.453369,-0.545166,0.855469
15:27:09,0.550781,-0.665283,1.14209
15:27:09,0.33252,-0.491211,0.844971
15:27:09,0.382324,-0.274414,0.816162
15:27:09,0.408691,-0.12085,0.787354
15:27:09,0.407471,0.009033,0.742432
15:27:09,0.480713,0.203857,0.71875
15:27:09,0.830811,0.759766,0.703857
15:27:09,0.984619,1.358643,0.281982
15:27:09,0.493896,1.279541,-0.284424
15:27:09,0.739746,1.038818,0.333252
15:27:09,0.588379,0.518799,0.679443
15:27:09,0.537354,0.19873,0.852783
15:27:09,0.493896,0.064697,0.804932
15:27:09,0.461914,0.008057,0.733154
15:27:09,0.507813,-0.016113,0.785156
15:27:09,0.561279,-0.016846,0.77417
15:27:09,0.582764,0.004883,0.712646
15:27:09,0.771973,0.265869,0.755127
15:27:09,0.788818,0.556885,0.52124
15:27:09,0.743896,0.624023,0.390869
15:27:09,0.716553,0.427734,0.582275
15:27:09,0.644531,0.155029,0.733887
15:27:09,0.595459,0.013184,0.758545
15:27:09,0.574707,0.025146,0.76123
15:27:09,0.612061,0.161865,0.75415
15:27:09,0.614502,0.255371,0.686768
15:27:09,0.571533,0.157715,0.692627
15:27:09,0.536865,0.027344,0.826172
15:27:09,0.47876,0.010986,0.875
15:27:09,0.527588,0.072021,0.797363
15:27:09,0.576416,0.207031,0.747803
15:27:09,0.610107,0.311768,0.673828
15:27:09,0.575684,0.283691,0.660889
15:27:09,0.550049,0.066406,0.821533
15:27:09,0.353271,-0.458984,1.366455
15:27:09,0.278809,-0.198975,1.148926
15:27:09,0.498291,0.293701,0.805176
15:27:09,0.621582,0.510742,0.95874
15:27:09,0.535889,0.402832,1.054199
15:27:09,0.809082,0.505615,1.153076
15:27:09,1.42627,1.095703,1.624023
15:27:09,1.611328,1.278076,1.929688
15:27:09,1.271973,1.41333,2.151367
15:27:09,0.865723,1.52832,1.92041
15:27:09,0.955811,2.049072,1.897461
15:27:09,1.641846,2.314453,2.444824
15:27:09,2.065918,2.513672,3.331299
15:27:09,1.321533,2.566162,2.510498
15:27:09,-0.096191,1.995117,0.137939
15:27:09,-0.6875,1.850586,-0.421387
15:27:09,-0.652832,1.938721,0.226807
15:27:09,-1.001221,1.45166,-0.080566
15:27:09,-1.348145,1.075439,-0.366699
15:27:09,-1.407227,0.889893,-0.268311
15:27:09,-1.3479,0.758301,0.01416
15:27:09,-1.13208,0.613281,0.324707
15:27:09,-0.798828,0.449707,0.318359
15:27:09,-0.468018,0.35083,0.41748
15:27:09,-0.183594,0.349365,0.505127
15:27:09,0.052979,0.471924,0.577393
15:27:09,0.343262,0.750977,0.624756
15:27:09,0.660645,1.116699,0.554199
15:27:09,0.798828,1.266846,0.437012
15:27:09,0.931641,1.268311,0.509766
15:27:09,0.995361,1.185059,0.62207
15:27:09,1.014404,1.064941,0.798584
15:27:09,1.017334,0.982178,0.950684
15:27:09,0.993408,0.922363,0.973877
15:27:09,1.018066,0.922363,1.028076
15:27:09,1.296143,1.127197,1.265625
15:27:09,1.581787,1.459961,1.314941
15:27:09,1.654541,1.604492,1.0979
15:27:09,1.918457,1.711426,1.353027
15:27:09,2.409912,2.044678,1.718994
15:27:09,2.236816,2.389648,0.896729
15:27:09,1.467285,2.623779,-0.803711
15:27:09,0.779053,2.648193,-2.205078
15:27:09,0.534912,2.217285,-3.171631
15:27:09,0.792725,1.407959,-3.809082
15:27:09,0.94873,0.684082,-4.147949
15:27:09,1.308594,0.368896,-4.108643
15:27:09,3.404541,0.531494,-3.262939
15:27:09,4.434082,0.928955,-2.43335
15:27:09,1.868408,0.698486,-1.647217
15:27:09,1.457764,0.000732,0.193604
15:27:09,0.931641,-1.923584,2.366699
15:27:09,0.365234,-6.772461,7.088379
15:27:09,-2.398926,-1.706055,-1.923584
15:27:09,-0.875488,-0.063477,-1.527832
15:27:09,3.822754,1.109619,5.125244
15:27:09,4.089111,3.551758,3.173096
15:27:09,-2.125488,2.525635,-3.752197
15:27:09,-0.01416,2.779785,-2.22583
15:27:09,1.955811,1.927979,1.550537
15:27:09,0.785645,0.486816,0.968262
15:27:09,0.60376,-0.183594,0.859863
15:27:10,0.614502,-0.443604,0.943848
15:27:10,0.466553,-0.607422,0.717285
15:27:10,0.600586,-0.859131,0.890869
15:27:10,0.647949,-0.846436,0.941895
15:27:10,0.568115,-0.568115,0.797852
15:27:10,0.53125,-0.298096,0.763672
15:27:10,0.527344,-0.098633,0.739258
15:27:10,0.458008,0.01001,0.660889
15:27:10,0.943115,0.832031,0.740479
15:27:10,0.907715,1.482178,0.242676
15:27:10,0.358643,1.249023,-0.186035
15:27:10,0.568115,0.974365,0.489502
15:27:10,0.488037,0.459717,0.898438
15:27:10,0.358154,0.175781,0.854492
15:27:10,0.414795,0.136963,0.827637
15:27:10,0.422607,0.134766,0.768311
15:27:10,0.425049,0.119629,0.766113
15:27:10,0.469482,0.137939,0.78833
15:27:10,0.567383,0.268555,0.782471
15:27:10,0.645508,0.459473,0.634521
15:27:10,0.626709,0.515625,0.529053
15:27:10,0.671631,0.433105,0.611816
15:27:10,0.625977,0.226074,0.7146
15:27:10,0.62793,0.101807,0.794189
15:27:10,0.565918,0.05957,0.766602
15:27:10,0.590088,0.108643,0.799805
15:27:10,0.588623,0.196777,0.730469
15:27:10,0.527588,0.178223,0.716309
15:27:10,0.51709,0.096924,0.802002
15:27:10,0.488281,0.053467,0.860352
15:27:10,0.501465,0.090576,0.844482
15:27:10,0.528076,0.188721,0.812012
15:27:10,0.534912,0.239014,0.765137
15:27:10,0.52417,0.255371,0.727539
15:27:10,0.532715,0.176025,0.746094
15:27:10,0.404785,-0.334229,1.207275
15:27:10,0.209473,-0.380127,1.330811
15:27:10,0.277832,0.24585,0.825195
15:27:10,0.525391,0.472168,0.849609
15:27:10,0.572754,0.369873,1.28833
15:27:10,0.542969,0.283203,1.166504
15:27:10,1.152832,0.678711,1.245605
15:27:10,1.931885,1.518799,2.493408
15:27:10,1.265381,1.490967,2.376709
15:27:10,0.32251,1.263916,1.676758
15:27:10,0.898438,2.13208,2.316162
15:27:10,1.449219,2.98999,1.973389
15:27:10,2.125488,3.047363,2.62915
15:27:10,1.498535,2.165039,2.668945
15:27:10,0.28125,1.53125,2.015869
15:27:10,-0.394775,1.06958,0.324463
15:27:10,-0.521973,1.304443,0.338867
15:27:10,-0.351563,1.393799,0.696289
15:27:10,-0.595459,1.033936,0.310303
15:27:10,-0.752686,0.787109,-0.020508
15:27:10,-0.948242,0.662842,-0.324951
15:27:10,-1.166016,0.671143,-0.36377
15:27:10,-1.232422,0.776611,0.000244
15:27:10,-1.151123,0.872559,0.446289
15:27:10,-0.980957,0.782715,0.494385
15:27:10,-0.680908,0.658691,0.402832
15:27:10,-0.28833,0.654297,0.512939
15:27:10,0.123291,0.819092,0.766602
15:27:10,0.508301,1.049805,0.867432
15:27:10,0.775635,1.139404,0.763672
15:27:10,0.950684,1.092529,0.699219
15:27:10,1.084961,1.012939,0.777344
15:27:10,1.16333,0.906738,0.901123
15:27:10,1.214844,0.767822,0.955078
15:27:10,1.265381,0.654053,1.021973
15:27:10,1.443848,0.671143,1.145508
15:27:10,1.626709,0.740723,1.156738
15:27:10,1.6875,0.712646,1.080078
15:27:10,1.989014,0.765869,1.256348
15:27:10,2.63501,1.103271,1.604004
15:27:10,3.088623,1.674316,1.762207
15:27:10,2.667725,2.271729,0.818359
15:27:10,1.415527,2.661621,-0.881592
15:27:10,0.027344,2.92627,-2.766113
15:27:10,-0.525635,2.976807,-4.097168
15:27:10,0.29541,2.172607,-4.125244
15:27:10,0.710449,1.474121,-4.113037
15:27:10,1.291016,1.081787,-3.799805
15:27:10,2.054932,1.217529,-3.318115
15:27:10,3.142822,1.749268,-2.196045
15:27:10,1.655518,1.377686,-2.025146
15:27:10,2.469971,-2.167236,1.182129
15:27:10,2.163574,-7.884033,3.756348
15:27:10,-2.137451,-4.669434,-1.107422
15:27:10,-1.623291,-1.080078,-1.957764
15:27:10,4.371826,0.461426,3.362305
15:27:10,4.637695,2.615234,3.123047
15:27:10,0.618652,3.044189,-1.453125
15:27:10,0.133301,3.753906,-2.1521
15:27:10,0.686523,2.911133,0.310303
15:27:10,0.096191,1.077881,1.022217
15:27:10,-0.079102,0.174805,0.80542
15:27:10,0.5896,0.122314,1.35498
15:27:10,0.459473,-0.034424,1.066162
15:27:10,0.128174,-0.099854,0.549072
15:27:11,0.002441,-0.265869,0.91626
15:27:11,0.063477,-0.313477,1.230225
15:27:11,0.053711,-0.237793,0.974365
15:27:11,0.16333,-0.132568,0.854736
15:27:11,0.234619,-0.045898,0.874756
15:27:11,0.248047,0.010742,0.829834
15:27:11,0.288086,0.095703,0.816895
15:27:11,0.377197,0.207764,0.766602
15:27:11,0.359375,0.273926,0.638184
15:27:11,1.090332,1.303955,0.75415
15:27:11,0.66333,1.414551,-0.094971
15:27:11,0.625244,1.208252,-0.057129
15:27:11,0.753418,0.726318,0.54248
15:27:11,0.726074,0.200195,0.803467
15:27:11,0.690674,-0.038818,0.794922
15:27:11,0.60791,-0.113525,0.715576
15:27:11,0.636475,-0.140137,0.74292
15:27:11,0.710693,-0.104004,0.731201
15:27:11,0.689453,-0.021484,0.673584
15:27:11,0.64624,0.029785,0.707031
15:27:11,0.781982,0.384766,0.741943
15:27:11,0.771484,0.839844,0.490723
15:27:11,0.523438,0.769287,0.336182
15:27:11,0.543701,0.456055,0.709229
15:27:11,0.487305,0.123291,0.849121
15:27:11,0.479004,0.030762,0.870605
15:27:11,0.462402,0.003906,0.802246
15:27:11,0.456787,-0.024902,0.82373
15:27:11,0.485107,-0.04834,0.877441
15:27:11,0.468018,-0.027832,0.838379
15:27:11,0.490479,0.007324,0.809082
15:27:11,0.583008,0.11792,0.778564
15:27:11,0.686279,0.355713,0.704834
15:27:11,0.669922,0.40918,0.622314
15:27:11,0.72998,0.328369,0.72998
15:27:11,0.750488,0.084717,1.003418
15:27:11,0.453125,-0.673096,1.60083
15:27:11,0.393555,-0.242188,1.499756
15:27:11,0.399414,0.094971,1.183838
15:27:11,1.139648,0.479492,1.878418
15:27:11,2.01001,1.99292,3.230469
15:27:11,0.629883,1.991699,1.721191
15:27:11,0.029297,2.216064,1.30957
15:27:11,0.510742,3.118164,1.658691
15:27:11,0.970947,2.470703,2.75
15:27:11,1.081055,2.38208,3.872803
15:27:11,0.154541,2.288574,1.578369
15:27:11,-0.73291,1.601563,-0.371826
15:27:11,-0.736084,1.582764,0.499512
15:27:11,-0.749512,1.094971,0.664795
15:27:11,-0.975098,0.724121,0.345947
15:27:11,-1.105469,0.552979,0.311768
15:27:11,-1.225342,0.512451,0.287842
15:27:11,-1.258057,0.634033,0.36377
15:27:11,-1.19165,0.792725,0.321777
15:27:11,-0.985352,0.923096,0.136963
15:27:11,-0.646484,1.009521,0.197021
15:27:11,-0.280518,0.973389,0.284424
15:27:11,-0.02124,0.852783,0.472168
15:27:11,0.286133,0.827881,0.72168
15:27:11,0.548584,0.843506,0.837402
15:27:11,0.773926,0.830811,0.941162
15:27:11,0.926758,0.794678,1.035645
15:27:11,1.079102,0.846924,1.083252
15:27:11,1.196045,0.888428,1.016113
15:27:11,1.269775,0.887451,0.97876
15:27:11,1.284912,0.827148,1.005859
15:27:11,1.315186,0.7771,1.076172
15:27:11,1.538086,0.936035,1.253174
15:27:11,1.755859,1.152832,1.306641
15:27:11,1.803711,1.227051,1.162109
15:27:11,1.952148,1.295898,1.250488
15:27:11,2.314941,1.503418,1.661865
15:27:11,2.351563,1.872803,1.320313
15:27:11,1.750488,2.257324,-0.155762
15:27:11,0.86377,2.484375,-1.882568
15:27:11,0.202881,2.464355,-3.191895
15:27:11,0.260254,2.104004,-3.816406
15:27:11,0.798584,1.685791,-3.982178
15:27:11,1.225342,1.489502,-3.88501
15:27:11,1.642822,1.215332,-3.288086
15:27:11,1.726074,1.097412,-2.614014
15:27:11,2.080078,1.087402,-1.352051
15:27:11,2.934082,-0.613525,1.165039
15:27:11,3.148438,-3.839111,1.76001
15:27:11,1.170654,-7.858398,2.269775
15:27:11,-1.063721,-1.324463,-0.874268
15:27:11,2.904053,-1.875,3.359863
15:27:11,2.93335,0.306152,2.902588
15:27:11,1.13916,2.069092,-0.462402
15:27:11,0.150879,3.137939,-2.52124
15:27:11,1.644287,3.5271,-0.899902
15:27:11,1.154053,1.695313,0.193604
15:27:11,0.401611,0.282227,0.612793
15:27:11,0.877197,-0.214111,1.490234
15:27:11,0.538086,-0.280762,0.925293
15:27:11,0.227539,-0.307617,0.419434
15:27:11,0.49707,-0.488525,0.943115
15:27:11,0.47583,-0.566895,1.077881
15:27:11,0.343506,-0.453125,0.821289
15:27:12,0.41748,-0.30127,0.824463
15:27:12,0.45166,-0.172607,0.837158
15:27:12,0.445801,-0.046631,0.74585
15:27:12,0.470459,0.087402,0.699951
15:27:12,0.519043,0.23877,0.6875
15:27:12,0.894531,0.818115,0.643799
15:27:12,1.029785,1.441162,0.181396
15:27:12,0.530029,1.126953,-0.232422
15:27:12,0.817383,0.789795,0.492432
15:27:12,0.689941,0.267334,0.76416
15:27:12,0.584473,0.046875,0.762451
15:27:12,0.524902,-0.013916,0.69873
15:27:12,0.552979,-0.052734,0.722656
15:27:12,0.613281,-0.078613,0.749756
15:27:12,0.641357,-0.061768,0.718262
15:27:12,0.685791,-0.018066,0.719238
15:27:12,0.691406,0.023926,0.688477
15:27:12,0.901367,0.354492,0.729736
15:27:12,0.748291,0.610596,0.376221
15:27:12,0.706543,0.592529,0.44458
15:27:12,0.671387,0.283447,0.623291
15:27:12,0.625,0.01709,0.785889
15:27:12,0.570557,-0.099854,0.817871
15:27:12,0.567627,-0.121582,0.832275
15:27:12,0.589355,-0.094971,0.779541
15:27:12,0.579102,-0.011475,0.811768
15:27:12,0.661133,0.130371,0.789307
15:27:12,0.707031,0.249756,0.685547
15:27:12,0.638428,0.220215,0.673828
15:27:12,0.60083,0.145264,0.701904
15:27:12,0.584229,-0.042725,0.817871
15:27:12,0.437744,-0.472168,1.194336
15:27:12,0.338379,-0.401611,1.327393
15:27:12,0.524658,0.265137,0.931885
15:27:12,0.725098,0.498535,0.841309
15:27:12,0.7854,0.399902,0.970459
15:27:12,0.94873,0.376953,0.974609
15:27:12,1.807129,1.014648,1.863037
15:27:12,2.20874,1.149414,3.417725
15:27:12,1.109375,1.053223,2.446777
15:27:12,1.077148,1.822998,1.800049
15:27:12,1.460938,2.630615,2.303955
15:27:12,1.811768,2.438721,2.104492
15:27:12,1.636963,2.302979,3.50293
15:27:12,0.435303,1.91626,1.362549
15:27:12,-0.713867,1.484375,-0.518555
15:27:12,-0.731201,1.727783,0.194092
15:27:12,-0.854492,1.480469,0.330078
15:27:12,-1.093506,1.090332,0.250488
15:27:12,-1.179443,0.856445,0.101807
15:27:12,-1.220947,0.746094,0.005127
15:27:12,-1.266602,0.671143,0.185059
15:27:12,-1.218018,0.591309,0.43457
15:27:12,-0.977783,0.529053,0.513916
15:27:12,-0.620361,0.478027,0.47998
15:27:12,-0.293457,0.539063,0.527344
15:27:12,0.042236,0.844238,0.631836
15:27:12,0.361084,1.212402,0.512939
15:27:12,0.600342,1.38208,0.343994
15:27:12,0.819824,1.341064,0.481689
15:27:12,0.94751,1.145752,0.686279
15:27:12,0.967529,0.89624,0.774658
15:27:12,0.997314,0.712158,0.898193
15:27:12,1.015869,0.557617,0.998535
15:27:12,1.019775,0.455322,0.964111
15:27:12,1.181885,0.479004,1.042725
15:27:12,1.668213,0.725098,1.344482
15:27:12,2.129395,0.962158,1.575684
15:27:12,2.244385,1.005371,1.457764
15:27:12,2.321289,1.067383,1.362305
15:27:12,2.77002,1.299316,1.642578
15:27:12,2.909424,1.700195,1.327637
15:27:12,2.255859,1.930176,0.076416
15:27:12,1.313965,2.016602,-1.27002
15:27:12,0.492432,2.107178,-2.612061
15:27:12,0.196045,2.097656,-3.601074
15:27:12,0.463135,1.830322,-4.280273
15:27:12,0.499512,1.177246,-4.45752
15:27:12,1.278076,0.887695,-4.279297
15:27:12,2.469238,1.232178,-3.701904
15:27:12,3.642334,1.68335,-1.658203
15:27:12,4.020752,-0.257813,1.555176
15:27:12,2.043945,-4.532227,2.456299
15:27:12,-1.957275,-4.980469,0.356201
15:27:12,-1.940186,-2.159668,-0.568115
15:27:12,3.486084,0.00708,3.139893
15:27:12,4.388916,1.796631,3.780518
15:27:12,-0.04126,2.962402,-2.11792
15:27:12,-0.285645,3.877441,-3.196533
15:27:12,1.51123,3.247314,0.107178
15:27:12,0.689209,1.033936,1.053467
15:27:12,-0.083984,0.078857,0.595215
15:27:12,0.639648,-0.032715,1.293213
15:27:12,0.438477,-0.195313,1.041992
15:27:12,0.062012,-0.344971,0.521973
15:27:12,0.003174,-0.522461,0.904541
15:27:12,0.14502,-0.641357,1.391846
15:27:12,0.140625,-0.531006,0.921631
15:27:12,0.305176,-0.415039,0.936768
15:27:12,0.344238,-0.282715,0.929688
15:27:13,0.313477,-0.164795,0.828125
15:27:13,0.328613,-0.039551,0.776855
15:27:13,0.409912,0.134033,0.733887
15:27:13,0.416504,0.297363,0.563965
15:27:13,1.194092,1.359375,0.664795
15:27:13,0.718018,1.541992,-0.182129
15:27:13,0.60376,1.333008,-0.160645
15:27:13,0.739014,0.893066,0.445068
15:27:13,0.628662,0.350586,0.738525
15:27:13,0.592041,0.061035,0.864746
15:27:13,0.499756,-0.043457,0.785889
15:27:13,0.47168,-0.087646,0.721924
15:27:13,0.55957,-0.10498,0.832275
15:27:13,0.550537,-0.078613,0.845703
15:27:13,0.535645,0.005615,0.785889
15:27:13,0.560547,0.109131,0.768799
15:27:13,0.681885,0.407715,0.728027
15:27:13,0.774414,0.836426,0.531494
15:27:13,0.572754,0.803467,0.262451
15:27:13,0.662109,0.562012,0.540283
15:27:13,0.548584,0.16333,0.796143
15:27:13,0.537842,-0.03418,0.941895
15:27:13,0.474609,-0.086914,0.909668
15:27:13,0.437744,-0.111084,0.793945
15:27:13,0.485107,-0.108398,0.860107
15:27:13,0.483643,-0.064209,0.844238
15:27:13,0.522217,0.000732,0.814697
15:27:13,0.660889,0.217285,0.811523
15:27:13,0.658447,0.403564,0.629395
15:27:13,0.668945,0.444824,0.608398
15:27:13,0.692139,0.337158,0.75293
15:27:13,0.620361,-0.022705,1.114258
15:27:13,0.054199,-0.64624,1.599121
15:27:13,0.392334,0.0271,1.343262
15:27:13,0.664063,0.65625,0.892578
15:27:13,1.002441,0.804688,1.256104
15:27:13,1.427246,1.261719,2.866699
15:27:13,0.755615,1.441162,2.406982
15:27:13,0.462891,1.915771,1.249268
15:27:13,0.890869,2.897461,1.655273
15:27:13,1.26001,2.983643,2.139648
15:27:13,1.51709,2.161865,3.310303
15:27:13,0.995117,1.758789,3.350586
15:27:13,0.01416,1.710449,0.627197
15:27:13,-0.64624,1.503662,-0.383789
15:27:13,-0.516602,1.679443,0.35791
15:27:13,-0.662842,1.161133,0.178711
15:27:13,-0.831543,0.842773,0.123291
15:27:13,-0.898682,0.699707,0.05542
15:27:13,-1.000244,0.631592,0.013184
15:27:13,-1.058105,0.644287,0.236816
15:27:13,-1.145752,0.689209,0.458984
15:27:13,-1.170898,0.6875,0.358154
15:27:13,-1.015625,0.716309,0.263428
15:27:13,-0.671387,0.75708,0.416748
15:27:13,-0.301514,0.833252,0.574219
15:27:13,0.056396,1.011719,0.650146
15:27:13,0.431641,1.255371,0.665039
15:27:13,0.688965,1.348145,0.604736
15:27:13,0.879883,1.325928,0.589355
15:27:13,1.046387,1.240723,0.661377
15:27:13,1.158936,1.088379,0.767822
15:27:13,1.219238,0.904541,0.880127
15:27:13,1.28833,0.761475,0.956787
15:27:13,1.469727,0.758301,1.099609
15:27:13,1.70459,0.86377,1.155518
15:27:13,2.025146,1.025146,1.167725
15:27:13,2.377441,1.163086,1.245361
15:27:13,2.667236,1.26001,1.421875
15:27:13,2.86377,1.556152,1.476074
15:27:13,2.52832,2.037598,0.634521
15:27:13,1.548584,2.343262,-0.997803
15:27:13,0.58374,2.394775,-2.567383
15:27:13,0.19751,2.182373,-3.763184
15:27:13,0.590088,1.663818,-4.229248
15:27:13,1.045898,1.136963,-4.214355
15:27:13,1.728271,0.832275,-3.579102
15:27:13,2.19751,0.773926,-3.065186
15:27:13,2.644043,0.945801,-1.85498
15:27:13,2.872803,0.762451,0.077393
15:27:13,1.982422,-0.891113,1.3396
15:27:13,1.258789,-5.213379,2.681641
15:27:13,-2.420898,-3.40332,-0.715332
15:27:13,-0.330811,-1.621826,0.059326
15:27:13,4.917969,-0.126465,5.739014
15:27:13,2.578369,1.775146,1.296143
15:27:13,-0.472168,3.355225,-3.430908
15:27:13,0.877441,4.064697,-1.845215
15:27:13,1.519775,2.397949,0.410645
15:27:13,0.40332,0.474609,0.671875
15:27:13,0.617188,-0.22583,1.357422
15:27:13,0.731445,-0.327393,1.252441
15:27:13,0.23584,-0.371826,0.424805
15:27:13,0.36377,-0.584961,0.835938
15:27:13,0.441162,-0.730957,1.239258
15:27:13,0.249756,-0.528564,0.908936
15:27:13,0.283447,-0.257324,0.831787
15:27:13,0.307373,-0.099365,0.843506
15:27:13,0.269287,0.045166,0.769775
15:27:13,0.277344,0.174072,0.709717
15:27:14,0.524902,0.563477,0.716797
15:27:14,0.948486,1.361328,0.580566
15:27:14,0.736084,1.594971,-0.087891
15:27:14,0.447998,1.25708,-0.231201
15:27:14,0.752197,0.885986,0.589111
15:27:14,0.516846,0.357422,0.654785
15:27:14,0.545166,0.120605,0.866211
15:27:14,0.499023,-0.002686,0.778809
15:27:14,0.481934,-0.060059,0.702637
15:27:14,0.601074,-0.107422,0.793457
15:27:14,0.62085,-0.100342,0.758545
15:27:14,0.662842,-0.04834,0.708496
15:27:14,0.669922,-0.007568,0.701904
15:27:14,0.933594,0.431641,0.757324
15:27:14,0.783203,0.69751,0.35376
15:27:14,0.73291,0.711426,0.371338
15:27:14,0.669189,0.385254,0.640869
15:27:14,0.58252,0.062012,0.811768
15:27:14,0.536865,-0.07373,0.897461
15:27:14,0.469971,-0.072266,0.834229
15:27:14,0.456543,-0.047363,0.817871
15:27:14,0.501953,0.047607,0.837402
15:27:14,0.570557,0.219971,0.757324
15:27:14,0.635254,0.379639,0.650879
15:27:14,0.635742,0.429688,0.572998
15:27:14,0.63916,0.323486,0.630127
15:27:14,0.660645,0.104004,0.843506
15:27:14,0.495361,-0.426025,1.272949
15:27:14,0.292236,-0.629639,1.579346
15:27:14,0.510254,0.325195,0.99585
15:27:14,0.687256,0.580811,0.739502
15:27:14,0.749023,0.29541,1.266113
15:27:14,1.564697,0.887939,2.312744
15:27:14,1.650879,1.370117,3.281006
15:27:14,0.546631,1.309082,1.779541
15:27:14,0.797119,2.125977,1.890381
15:27:14,1.048096,2.904785,1.806641
15:27:14,1.66333,2.650879,2.415771
15:27:14,1.541748,2.446045,3.956299
15:27:14,0.352783,1.746094,1.401855
15:27:14,-0.691406,1.413818,-0.406006
15:27:14,-0.598145,1.731445,0.267578
15:27:14,-0.5979,1.49585,0.453369
15:27:14,-0.797363,1.094727,0.385986
15:27:14,-0.934814,0.869629,0.239502
15:27:14,-1.013916,0.771484,0.033936
15:27:14,-1.104004,0.766602,0.111572
15:27:14,-1.196533,0.782959,0.252441
15:27:14,-1.159668,0.827637,0.339844
15:27:14,-0.920898,0.882568,0.37915
15:27:14,-0.557861,0.887695,0.398193
15:27:14,-0.203369,0.89917,0.45459
15:27:14,0.124512,1.016846,0.534668
15:27:14,0.437256,1.187744,0.601807
15:27:14,0.675781,1.290771,0.580322
15:27:14,0.899902,1.354004,0.632813
15:27:14,1.088867,1.344238,0.705322
15:27:14,1.182861,1.208496,0.756836
15:27:14,1.232422,1.053223,0.849365
15:27:14,1.305664,0.929199,0.926025
15:27:14,1.491455,0.894531,1.039551
15:27:14,1.760254,1.015137,1.176758
15:27:14,1.946289,1.179443,1.104736
15:27:14,2.134277,1.338623,0.969482
15:27:14,2.388428,1.536621,1.044678
15:27:14,2.542725,1.852295,1.077148
15:27:14,2.167969,2.207031,0.24707
15:27:14,1.396484,2.451172,-1.15332
15:27:14,0.738281,2.487549,-2.432617
15:27:14,0.802002,2.091553,-3.099121
15:27:14,1.089355,1.566895,-3.524902
15:27:14,1.065918,0.991455,-4.010742
15:27:14,1.501465,0.69873,-3.616211
15:27:14,1.85791,0.691406,-3.242188
15:27:14,2.693115,1.095459,-2.339111
15:27:14,2.181396,1.157959,-0.85791
15:27:14,2.822754,-0.8479,1.200684
15:27:14,2.43457,-6.586426,3.239014
15:27:14,-1.589111,-5.812256,0.757813
15:27:14,-0.169678,-1.353271,0.528809
15:27:14,4.749756,-1.00415,4.878662
15:27:14,2.385986,2.30957,1.359863
15:27:14,-0.956299,3.01416,-3.6875
15:27:14,1.02417,3.868408,-2.343994
15:27:14,2.032227,2.587891,0.574951
15:27:14,0.3396,0.349854,0.434814
15:27:14,0.219727,-0.264404,1.026611
15:27:14,0.940674,-0.376221,1.694092
15:27:14,0.271973,-0.32959,0.565186
15:27:14,0.179688,-0.402344,0.529785
15:27:14,0.485107,-0.594482,1.300293
15:27:14,0.271729,-0.492432,0.951172
15:27:14,0.259277,-0.31543,0.812988
15:27:14,0.352295,-0.192871,0.918457
15:27:14,0.332275,-0.077637,0.836914
15:27:14,0.329102,0.063232,0.750488
15:27:14,0.353027,0.168945,0.692383
15:27:14,0.816895,0.777832,0.775635
15:27:14,1.045166,1.449707,0.372314
15:27:14,0.585693,1.440918,-0.356934
