Time,Accel-X (g), Accel-Y (g), Accel-Z (g)
16:44:19,2.908936,0.160156,-1.192871
16:44:19,1.062012,0.327637,-2.424316
16:44:19,-0.063965,0.536865,-2.523682
16:44:19,0.202148,1.406006,-3.006592
16:44:19,1.978516,0.443604,-3.866943
16:44:19,2.061035,-0.564209,-6.381104
16:44:19,0.393066,-0.705811,-7.252197
16:44:19,-1.09668,-0.240967,-5.445068
16:44:19,0.468262,-1.153809,-1.695801
16:44:19,6.233154,-3.120361,2.03833
16:44:19,5.852539,-2.136475,2.255127
16:44:19,0.47876,-0.259277,0.841309
16:44:19,0.285156,-0.335449,0.353516
16:44:19,1.528809,-0.222656,1.720215
16:44:19,2.334473,-0.05542,3.058838
16:44:19,0.628418,0.236572,-0.07251
16:44:19,0.664063,0.832275,-0.764893
16:44:19,2.359375,1.730469,-0.150635
16:44:19,1.329346,1.217285,-0.588867
16:44:19,1.094971,0.567871,-0.318848
16:44:19,1.344727,0.111816,0.404053
16:44:19,0.916748,-0.278564,0.552734
16:44:19,0.652344,-0.394531,0.470215
16:44:19,0.747559,-0.467041,0.621094
16:44:19,0.80249,-0.496338,0.702393
16:44:19,0.642334,-0.542969,0.641846
16:44:19,0.59082,-0.556152,0.698975
16:44:19,0.620361,-0.485107,0.678711
16:44:19,0.730225,-0.337646,0.55957
16:44:19,0.730957,-0.231445,0.491943
16:44:19,0.863037,-0.077148,0.494873
16:44:19,0.998291,0.153076,0.365479
16:44:19,0.99707,0.318848,0.196045
16:44:19,1.160645,0.563965,0.19458
16:44:19,1.075195,0.691406,0.112061
16:44:19,0.83374,0.504639,0.215576
16:44:19,0.796387,0.271484,0.537598
16:44:19,0.691162,0.169922,0.606689
16:44:19,0.547119,0.138916,0.540039
16:44:19,0.584229,0.141602,0.590576
16:44:19,0.625488,0.168945,0.593506
16:44:19,0.652588,0.199951,0.53833
16:44:19,0.750977,0.19873,0.508545
16:44:19,0.791992,0.155029,0.425049
16:44:19,0.808105,0.117432,0.377197
16:44:19,0.85791,0.096436,0.374023
16:44:19,0.905762,0.03125,0.402832
16:44:19,0.934082,-0.036133,0.461426
16:44:19,0.866943,-0.138428,0.469482
16:44:19,0.838623,-0.175537,0.471436
16:44:19,0.795898,-0.187256,0.518799
16:44:19,0.812256,-0.171875,0.577637
16:44:19,0.8125,-0.141602,0.621338
16:44:19,0.813477,-0.142334,0.666504
16:44:19,0.787598,-0.12085,0.697266
16:44:19,0.885254,-0.033447,0.730225
16:44:19,1.086914,0.040283,0.721924
16:44:19,0.983643,-0.067139,0.807617
16:44:19,0.777588,-0.103271,0.903564
16:44:19,0.817627,-0.110596,0.934326
16:44:19,1.424072,0.459229,1.399658
16:44:19,2.260254,1.21582,2.058105
16:44:19,2.821777,1.675293,1.741211
16:44:19,2.800781,2.633301,0.554688
16:44:19,2.163086,3.699951,-0.290527
16:44:19,4.275391,3.368164,0.662598
16:44:19,6.542725,2.792969,1.406006
16:44:19,3.39917,1.994385,0.330322
16:44:19,-0.056152,0.673828,-0.394531
16:44:19,0.247803,0.526367,0.238525
16:44:19,0.697021,0.741455,1.25415
16:44:19,0.071289,0.743896,1.77832
16:44:19,-1.515381,0.695068,1.834717
16:44:19,-1.95459,0.920898,0.765625
16:44:19,-0.469727,1.740723,0.556396
16:44:19,0.930908,2.209717,0.963623
16:44:19,0.839844,1.406006,0.127441
16:44:19,0.734131,0.733887,0.265869
16:44:19,0.833984,0.413086,0.628906
16:44:19,0.874756,0.231201,0.702881
16:44:19,0.828857,0.112793,0.610107
16:44:19,0.829834,0.085693,0.657471
16:44:19,1.02002,0.207764,0.833252
16:44:19,1.442627,0.521484,0.970947
16:44:19,1.818604,0.85083,0.886475
16:44:19,1.853027,0.909668,0.616943
16:44:19,1.720703,0.766846,0.451172
16:44:19,2.021729,0.557373,0.210449
16:44:19,2.31543,0.573975,0.498291
16:44:19,3.033936,0.865234,0.939697
16:44:19,3.752441,-0.383057,0.905273
16:44:19,4.221191,-1.527344,-1.543701
16:44:19,2.556885,-1.32666,-5.251465
16:44:19,1.904053,-1.210938,-6.752686
16:44:19,1.829102,-0.264893,-5.461182
16:44:19,0.18042,0.616699,-3.602539
16:44:19,-0.401123,0.366699,-2.702148
16:44:19,-0.072266,0.438965,-2.742188
16:44:19,0.129395,0.389648,-3.41333
16:44:19,-0.128662,0.252686,-3.565674
16:44:20,0.640381,-0.254883,-1.880615
16:44:20,3.213135,-0.844727,0.479736
16:44:20,3.464355,-0.85083,1.044189
16:44:20,2.305176,-0.644531,1.588867
16:44:20,1.725586,-0.73584,1.870361
16:44:20,0.928467,-0.710449,1.107666
16:44:20,1.340332,-0.878174,1.303223
16:44:20,2.475098,-1.254395,1.416504
16:44:20,0.932617,-0.388916,-0.275391
16:44:20,1.575928,-0.169922,-0.282959
16:44:20,2.241211,0.575928,-0.312256
16:44:20,2.04541,1.291992,-0.670898
16:44:20,1.377441,1.284912,-0.858398
16:44:20,1.15332,0.671875,-0.142334
16:44:20,1.021729,0.177246,0.482666
16:44:20,0.765381,-0.023926,0.598389
16:44:20,0.587402,-0.081543,0.627686
16:44:20,0.541504,-0.123779,0.779785
16:44:20,0.504883,-0.159668,0.860352
16:44:20,0.39917,-0.197998,0.807617
16:44:20,0.334473,-0.190918,0.772217
16:44:20,0.352051,-0.167969,0.795654
16:44:20,0.392334,-0.132813,0.779297
16:44:20,0.440674,-0.06543,0.73291
16:44:20,0.564697,0.040283,0.721924
16:44:20,0.8396,0.194092,0.634277
16:44:20,1.116943,0.305908,0.344482
16:44:20,1.201416,0.344971,0.067627
16:44:20,1.164063,0.377197,0.117676
16:44:20,0.989258,0.380615,0.368164
16:44:20,0.682861,0.281738,0.533203
16:44:20,0.596436,0.177734,0.634521
16:44:20,0.536377,0.108154,0.68335
16:44:20,0.529053,0.055176,0.702881
16:44:20,0.535156,0.047852,0.665771
16:44:20,0.599365,0.080078,0.60376
16:44:20,0.703369,0.109375,0.515381
16:44:20,0.922119,0.112793,0.42627
16:44:20,1.156494,0.01416,0.379639
16:44:20,1.188477,-0.092285,0.333252
16:44:20,1.044922,-0.178223,0.467773
16:44:20,0.841064,-0.185547,0.556885
16:44:20,0.709473,-0.214111,0.73877
16:44:20,0.655762,-0.212646,0.912109
16:44:20,0.597412,-0.188721,0.94751
16:44:20,0.540771,-0.140625,0.933594
16:44:20,0.581055,-0.052734,0.892334
16:44:20,0.709961,0.026611,0.86792
16:44:20,0.642578,0.071289,0.828369
16:44:20,0.572754,0.071045,0.802979
16:44:20,0.571533,0.02832,0.845703
16:44:20,0.872803,0.404785,1.033691
16:44:20,1.290527,1.246338,1.272949
16:44:20,1.756592,1.986084,1.395996
16:44:20,2.363281,2.285889,1.250244
16:44:20,2.278809,2.274658,0.72168
16:44:20,1.935791,2.678711,-0.030029
16:44:20,1.769043,2.575928,-0.467041
16:44:20,3.577881,2.317383,1.183105
16:44:20,7.252441,4.350098,3.364746
16:44:20,2.209961,1.256592,0.495605
16:44:20,0.113281,0.416504,-0.586182
16:44:20,0.221924,0.14917,0.057861
16:44:20,1.213135,0.404297,1.179443
16:44:20,1.349365,0.135498,2.068604
16:44:20,0.491211,0.050781,1.55835
16:44:20,0.273438,-0.056641,0.776611
16:44:20,0.27002,-0.063232,0.721191
16:44:20,0.381348,-0.066895,1.012451
16:44:20,0.353516,-0.031982,0.919922
16:44:20,0.328369,0.034668,0.661621
16:44:20,0.359131,0.081055,0.624268
16:44:20,0.791504,0.487793,0.784912
16:44:20,1.159912,0.969238,0.59668
16:44:20,1.130127,1.13208,0.163086
16:44:20,1.182129,1.119873,0.03833
16:44:20,1.365967,0.913818,0.374756
16:44:20,1.332764,0.501953,0.65918
16:44:20,1.384521,0.187744,0.726563
16:44:20,1.518799,0.041748,0.737061
16:44:20,2.035889,0.044434,1.077881
16:44:20,3.124756,0.057373,1.451416
16:44:20,4.219727,-0.729004,0.810791
16:44:20,4.189941,-1.411133,-1.456299
16:44:20,2.906982,-1.088623,-4.400391
16:44:20,2.503418,-0.871094,-5.730713
16:44:20,1.887939,0.448486,-5.241699
16:44:20,0.479004,0.792969,-3.527832
16:44:20,-0.186279,0.298584,-2.729248
16:44:20,-0.22583,0.183594,-2.697998
16:44:20,-0.768555,0.221924,-3.440186
16:44:20,-1.050781,0.321045,-4.374268
16:44:20,0.534668,-0.315186,-3.619141
16:44:20,3.68335,-2.07666,-0.660156
16:44:20,4.86377,-2.410645,0.645996
16:44:20,2.749756,-0.996338,0.431152
16:44:20,1.203613,-0.595459,0.806396
16:44:20,1.304688,-0.667969,1.523682
16:44:20,2.415771,-1.002686,2.779785
16:44:21,1.297852,-0.552979,1.209717
16:44:21,0.458252,-0.014893,-0.445557
16:44:21,1.648438,0.334961,-0.13623
16:44:21,2.399902,0.865723,-0.251465
16:44:21,1.679688,1.001221,-0.894531
16:44:21,1.517334,0.675049,-0.460693
16:44:21,1.42749,0.257568,0.144775
16:44:21,0.903564,-0.019531,0.283691
16:44:21,0.685303,-0.148193,0.43335
16:44:21,0.712646,-0.227295,0.682373
16:44:21,0.647705,-0.273682,0.818848
16:44:21,0.482666,-0.281006,0.76123
16:44:21,0.415771,-0.260254,0.73291
16:44:21,0.410645,-0.244141,0.756592
16:44:21,0.452881,-0.19458,0.734619
16:44:21,0.575928,-0.087646,0.668945
16:44:21,0.668213,0.043213,0.631104
16:44:21,0.835693,0.205078,0.559082
16:44:21,0.926025,0.382568,0.359619
16:44:21,0.979492,0.505371,0.198242
16:44:21,1.017822,0.565674,0.189453
16:44:21,0.99585,0.525391,0.255615
16:44:21,0.905273,0.405029,0.344482
16:44:21,0.818359,0.273438,0.448242
16:44:21,0.71167,0.154541,0.490967
16:44:21,0.676514,0.046143,0.594727
16:44:21,0.644287,-0.022705,0.651367
16:44:21,0.639648,-0.043701,0.664551
16:44:21,0.630371,-0.065674,0.622803
16:44:21,0.682129,-0.029785,0.50708
16:44:21,0.797363,-0.001709,0.403076
16:44:21,0.91333,0.000977,0.398193
16:44:21,1.036621,0.011475,0.383301
16:44:21,1.01123,-0.045654,0.442383
16:44:21,0.900146,-0.092773,0.507568
16:44:21,0.808105,-0.104004,0.525391
16:44:21,0.759521,-0.111084,0.584473
16:44:21,0.780029,-0.113037,0.651855
16:44:21,0.795898,-0.097168,0.697021
16:44:21,0.766602,-0.073242,0.731689
16:44:21,0.768799,-0.041016,0.740479
16:44:21,0.895752,0.009766,0.733643
16:44:21,1.077881,0.111328,0.630615
16:44:21,1.232422,0.296875,0.392578
16:44:21,1.704834,0.292725,0.309082
16:44:21,1.878662,0.102051,0.938965
16:44:21,0.442383,-0.223633,2.530273
16:44:21,-0.036377,0.034424,3.311768
16:44:21,1.519043,1.269775,0.975342
16:44:21,2.701172,2.758789,0.410156
16:44:21,2.265625,4.12793,-0.984619
16:44:21,1.688965,3.827881,-1.486816
16:44:21,3.647949,3.259766,0.650391
16:44:21,6.886719,5.058594,2.902832
16:44:21,2.364502,1.883057,0.556396
16:44:21,-0.273438,0.276367,-0.687744
16:44:21,-0.503662,-0.015625,-0.421387
16:44:21,0.358643,0.162598,1.013428
16:44:21,1.155029,0.173584,2.552246
16:44:21,0.393799,0.10376,1.89502
16:44:21,-0.539551,0.073975,0.652344
16:44:21,-0.856201,0.139404,0.489746
16:44:21,-0.513672,0.248291,1.081543
16:44:21,0.153564,0.531982,1.209229
16:44:21,0.766846,1.074951,0.789063
16:44:21,1.014893,1.400391,0.302979
16:44:21,1.018799,1.304199,0.055176
16:44:21,1.0979,1.022949,0.227295
16:44:21,1.138672,0.683838,0.478516
16:44:21,1.135986,0.427246,0.629639
16:44:21,1.19751,0.298584,0.788086
16:44:21,1.366699,0.265137,0.9104
16:44:21,1.481934,0.233887,0.895752
16:44:21,1.662598,0.228027,0.785156
16:44:21,2.22583,0.349365,0.800049
16:44:21,3.036133,0.544434,1.157471
16:44:21,3.688232,0.452148,0.688721
16:44:21,4.300049,-1.141113,-0.770508
16:44:21,3.103516,-0.842285,-4.140625
16:44:21,2.398438,-0.97583,-6.188965
16:44:21,2.083008,0.129883,-6.085693
16:44:21,0.424805,0.418213,-4.323975
16:44:21,-0.324219,0.112061,-3.178711
16:44:21,-0.410156,-0.003418,-2.812744
16:44:21,-0.322266,-0.259521,-3.136963
16:44:21,0.751465,0.23999,-3.487305
16:44:21,0.236572,0.409424,-3.833252
16:44:21,0.691406,0.427002,-1.716553
16:44:21,2.675781,-0.534912,0.790527
16:44:21,3.191895,-0.792969,0.898438
16:44:21,1.801758,-0.554443,0.884033
16:44:21,1.218018,-0.809814,1.552246
16:44:21,1.131348,-1.043945,1.669434
16:44:21,0.919678,-1.054688,1.308838
16:44:21,1.22583,-1.255371,1.17334
16:44:21,1.024414,-1.071289,0.621582
16:44:21,1.269287,-0.846924,0.230957
16:44:21,1.887451,-0.875732,0.374268
16:44:21,1.178711,-0.137207,-0.232666
16:44:21,1.681641,0.605713,-0.22168
16:44:21,2.134766,1.375,-0.34668
16:44:22,1.296387,1.383545,-0.754883
16:44:22,0.936279,0.929932,-0.399658
16:44:22,1.03833,0.381592,0.270264
16:44:22,0.894043,0.020996,0.620605
16:44:22,0.722412,-0.125732,0.759277
16:44:22,0.52124,-0.176025,0.719238
16:44:22,0.483887,-0.218994,0.765869
16:44:22,0.454346,-0.235107,0.812256
16:44:22,0.439941,-0.195068,0.77417
16:44:22,0.404053,-0.121826,0.680664
16:44:22,0.42627,-0.06665,0.668701
16:44:22,0.730957,0.041504,0.716064
16:44:22,0.85791,0.14502,0.499512
16:44:22,1.052002,0.476563,0.299316
16:44:22,1.041016,0.783936,0.143311
16:44:22,0.810791,0.880615,0.022949
16:44:22,0.748779,0.718018,0.287842
16:44:22,0.693848,0.349609,0.621826
16:44:22,0.586182,0.122803,0.700684
16:44:22,0.536621,0.077881,0.652588
16:44:22,0.562744,0.078125,0.601074
16:44:22,0.641602,0.108643,0.556885
16:44:22,0.820068,0.144531,0.515869
16:44:22,1.046875,0.120117,0.393066
16:44:22,1.156006,0.022949,0.243652
16:44:22,1.124756,-0.070068,0.309814
16:44:22,0.873535,-0.124512,0.522949
16:44:22,0.580078,-0.13208,0.725098
16:44:22,0.610596,-0.140381,0.891602
16:44:22,0.616211,-0.118164,0.848145
16:44:22,0.576904,-0.084229,0.783447
16:44:22,0.642822,-0.033203,0.77002
16:44:22,0.828369,0.041504,0.835693
16:44:22,1.262207,0.077393,0.832275
16:44:22,1.602539,0.01123,0.603271
16:44:22,0.867676,-0.167725,0.495117
16:44:22,0.219238,-0.257324,0.780029
16:44:22,0.838379,0.525635,2.694092
16:44:22,0.321777,1.036377,2.055664
16:44:22,0.72583,1.844727,0.159668
16:44:22,2.304443,2.555176,0.42334
16:44:22,2.098633,2.203857,0.473877
16:44:22,2.049072,2.334473,-0.067383
16:44:22,1.685059,2.457764,-0.383789
16:44:22,4.476807,3.126465,1.07959
16:44:22,6.91748,4.328613,2.356445
16:44:22,3.297607,2.691895,0.335205
16:44:22,-0.204346,0.693359,-1.21582
16:44:22,-0.112793,0.320068,-0.42334
16:44:22,0.859375,0.108887,0.952637
16:44:22,1.349365,-0.141846,2.130615
16:44:22,0.731934,-0.294678,1.859131
16:44:22,0.071289,-0.322998,0.63208
16:44:22,0.089844,-0.387207,0.349609
16:44:22,0.067139,-0.555664,0.877686
16:44:22,0.160645,-0.58667,1.142578
16:44:22,0.376709,-0.386719,0.800537
16:44:22,0.525146,-0.285889,0.728516
16:44:22,0.649414,-0.206299,0.839844
16:44:22,0.908447,0.000732,0.94165
16:44:22,1.434814,0.496094,0.902344
16:44:22,1.969482,1.294434,0.447021
16:44:22,1.622559,1.390381,-0.199951
16:44:22,1.358887,1.236572,-0.437744
16:44:22,1.668213,0.946777,-0.129639
16:44:22,2.157715,0.628418,0.422852
16:44:22,3.072998,0.364502,1.019775
16:44:22,4.712402,-1.353516,0.917969
16:44:22,4.106934,-1.350098,-1.374512
16:44:22,2.832764,-1.187744,-3.333252
16:44:22,2.409668,-0.442383,-4.885986
16:44:22,1.708008,0.795898,-5.473877
16:44:22,0.596191,0.824219,-4.503418
16:44:22,0.112061,0.107422,-3.39502
16:44:22,0.068359,-0.267822,-3.144531
16:44:22,0.131836,-0.209229,-3.462402
16:44:22,0.777832,0.37207,-3.467041
16:44:22,0.595703,0.563721,-3.250244
16:44:22,0.376465,0.313965,-1.806396
16:44:22,2.519043,-0.42041,0.806396
16:44:22,3.371582,-0.937012,1.607422
16:44:22,1.553955,-0.535156,1.033447
16:44:22,1.070557,-0.821045,1.278809
16:44:22,1.102539,-1.152588,1.47168
16:44:22,1.35791,-1.477295,1.429688
16:44:22,1.668457,-1.522705,1.062012
16:44:22,1.166748,-0.943604,0.325195
16:44:22,1.01709,-0.673584,0.236084
16:44:22,1.239258,-0.401611,0.388184
16:44:22,1.750244,0.282227,0.130371
16:44:22,2.009033,1.313232,-0.453613
16:44:22,1.539307,1.70459,-0.955811
16:44:22,1.106934,1.477783,-0.774658
16:44:22,1.056641,0.840088,-0.091553
16:44:22,0.914063,0.242432,0.471924
16:44:22,0.821289,-0.032471,0.85083
16:44:22,0.552002,-0.12915,0.795166
16:44:22,0.440918,-0.166016,0.730957
16:44:22,0.436768,-0.185059,0.76416
16:44:22,0.430664,-0.20166,0.817627
16:44:23,0.394531,-0.122559,0.760498
16:44:23,0.403809,-0.100098,0.730469
16:44:23,0.398193,-0.053711,0.722168
16:44:23,0.610107,0.064697,0.770508
16:44:23,0.907715,0.194824,0.600342
16:44:23,0.985352,0.2771,0.243164
16:44:23,1.133057,0.48877,0.132813
16:44:23,1.079346,0.692627,0.171387
16:44:23,0.775391,0.575195,0.336914
16:44:23,0.714111,0.356201,0.637695
16:44:23,0.623291,0.235107,0.657227
16:44:23,0.543213,0.179199,0.578369
16:44:23,0.57251,0.141113,0.636475
16:44:23,0.621338,0.121338,0.603027
16:44:23,0.683838,0.123779,0.52124
16:44:23,0.80835,0.099121,0.520752
16:44:23,0.893555,0.032227,0.465088
16:44:23,0.990234,-0.044922,0.48291
16:44:23,1.131348,-0.133789,0.449463
16:44:23,1.09082,-0.204834,0.422363
16:44:23,0.988281,-0.218506,0.480713
16:44:23,0.827637,-0.218018,0.652832
16:44:23,0.676025,-0.237305,0.86084
16:44:23,0.557861,-0.189697,1.041504
16:44:23,0.541016,-0.088623,1.104492
16:44:23,0.575928,0.010498,1.023682
16:44:23,0.572021,0.066895,0.873291
16:44:23,0.432861,0.058838,0.813965
16:44:23,0.450928,0.255371,0.861328
16:44:23,0.699463,0.590088,0.982666
16:44:23,1.604736,1.806641,1.134766
16:44:23,2.474609,2.529541,1.354248
16:44:23,2.535889,2.347168,1.302002
16:44:23,2.368164,2.532715,0.724609
16:44:23,1.935303,3.128906,-0.069092
16:44:23,2.260254,2.506836,0.469238
16:44:23,4.993896,2.436279,2.489746
16:44:23,4.535645,2.148682,2.310791
16:44:23,0.253174,-0.041016,0.115967
16:44:23,-0.105713,-0.16748,0.119141
16:44:23,1.003418,0.178223,1.398926
16:44:23,1.921143,0.637451,2.209961
16:44:23,0.735352,0.388916,1.285889
16:44:23,-0.023926,0.241699,0.241699
16:44:23,0.154297,0.453857,0.510986
16:44:23,0.388428,0.757813,0.927002
16:44:23,0.12085,0.687012,0.698486
16:44:23,0.102051,0.742188,0.591797
16:44:23,0.389893,0.921631,0.656006
16:44:23,0.627197,0.941162,0.611084
16:44:23,0.763672,0.830078,0.606201
16:44:23,0.897461,0.696045,0.643066
16:44:23,1.011963,0.568604,0.724365
16:44:23,1.170654,0.490234,0.836426
16:44:23,1.439941,0.498535,1.006592
16:44:23,1.581299,0.494629,1.027832
16:44:23,1.905518,0.449951,0.951172
16:44:23,3.040771,0.063232,0.854492
16:44:23,4.053467,-0.509033,0.642578
16:44:23,4.119141,-0.682129,0.015137
16:44:23,3.523438,-0.309082,-0.763184
16:44:23,3.704834,-0.329102,-0.738037
16:44:23,3.307373,-0.509033,-1.065186
16:44:23,1.861328,-0.21875,-2.45874
16:44:23,1.35791,0.141357,-3.768555
16:44:23,1.759277,0.233643,-4.708008
16:44:23,2.20459,0.156982,-4.807617
16:44:23,1.559082,0.190186,-3.946533
16:44:23,-0.408691,0.352051,-3.873291
16:44:23,-0.770508,0.374512,-3.832275
16:44:23,1.778564,0.030029,-1.29248
16:44:23,4.553955,-0.206787,1.210938
16:44:23,4.414307,-0.838623,2.775146
16:44:23,1.731445,-0.576172,2.974854
16:44:23,0.675293,-0.460449,1.081543
16:44:23,0.506592,-0.508057,0.744385
16:44:23,0.932861,-0.643066,1.767578
16:44:23,1.311279,-0.691895,2.037109
16:44:23,0.989258,-0.451172,0.818115
16:44:23,0.887939,-0.200928,0
16:44:23,1.831299,0.236328,-0.44751
16:44:23,2.405029,0.770264,-0.567383
16:44:23,2.037842,1.035889,-1.018555
16:44:23,1.799805,0.792725,-0.747803
16:44:23,1.451416,0.233887,-0.110107
16:44:23,1.056152,-0.089111,0.342285
16:44:23,0.763184,-0.181641,0.557617
16:44:23,0.60083,-0.195068,0.694092
16:44:23,0.508057,-0.184814,0.855469
16:44:23,0.4104,-0.154785,0.825439
16:44:23,0.353516,-0.09082,0.716553
16:44:23,0.309326,-0.006348,0.67041
16:44:23,0.304688,0.09668,0.663818
16:44:23,0.406006,0.237305,0.706055
16:44:23,0.522461,0.404541,0.64917
16:44:23,0.797119,0.818848,0.498291
16:44:23,0.968994,1.273193,0.213135
16:44:23,0.671143,1.0979,-0.070801
16:44:23,0.717529,0.752441,0.248047
16:44:23,0.733398,0.389404,0.637695
16:44:24,0.593018,0.205566,0.635254
16:44:24,0.528809,0.121338,0.561035
16:44:24,0.605713,0.071533,0.612061
16:44:24,0.679932,0.060547,0.587891
16:44:24,0.737061,0.045898,0.512207
16:44:24,0.779785,0.031494,0.469238
16:44:24,0.930908,0.003662,0.426025
16:44:24,0.937256,-0.050537,0.357666
16:44:24,0.945801,-0.156006,0.436279
16:44:24,1.021729,-0.210449,0.506348
16:44:24,0.904053,-0.251221,0.522461
16:44:24,0.865723,-0.218506,0.574463
16:44:24,0.816162,-0.184082,0.620605
16:44:24,0.775391,-0.143311,0.692139
16:44:24,0.721436,-0.10376,0.760498
16:44:24,0.794189,-0.025635,0.744629
16:44:24,0.98584,0.071777,0.741211
16:44:24,1.216797,0.11499,0.817627
16:44:24,0.95166,0.04126,0.814209
16:44:24,0.364746,-0.023193,0.503418
16:44:24,0.495361,0,0.750732
16:44:24,0.978516,0.426025,2.220459
16:44:24,0.912598,1.384277,2.161621
16:44:24,1.496338,2.318848,0.657959
16:44:24,2.662109,2.898193,0.666748
16:44:24,2.569336,3.311279,0.246094
16:44:24,2.084473,3.475098,-0.427734
16:44:24,2.441406,3.128418,0.181641
16:44:24,5.43335,3.622559,2.719971
16:44:24,4.64917,3.068848,2.097412
16:44:24,0.57251,0.606201,-0.05957
16:44:24,-0.280273,0.099854,-0.274414
16:44:24,0.224609,0.309814,0.584961
16:44:24,1.019531,0.453613,1.745117
16:44:24,0.699219,0.37915,1.84668
16:44:24,0.049561,0.296143,1.101563
16:44:24,-0.410156,0.362061,0.680908
16:44:24,-0.585205,0.550049,0.707764
16:44:24,-0.091797,1.009277,0.71582
16:44:24,0.311523,1.112549,0.532959
16:44:24,0.550537,0.897217,0.502686
16:44:24,0.716553,0.671631,0.596436
16:44:24,0.841553,0.5625,0.655029
16:44:24,0.969238,0.57666,0.650635
16:44:24,1.111084,0.655029,0.613525
16:44:24,1.282227,0.713867,0.660645
16:44:24,1.540283,0.776123,0.834717
16:44:24,1.800537,0.812256,1.006836
16:44:24,1.816895,0.728516,0.998535
16:44:24,2.192383,0.662598,1.126709
16:44:24,4.037598,0.381592,1.113281
16:44:24,5.008301,-0.174316,0.243896
16:44:24,3.611084,-0.257324,-1.0625
16:44:24,3.984619,0.001953,-1.650879
16:44:24,4.479492,0.10498,-1.801514
16:44:24,0.947754,0.348389,-3.799805
16:44:24,-1.045898,0.575928,-5.128418
16:44:24,-0.303955,0.977539,-3.907471
16:44:24,1.821289,1.687988,-3.854004
16:44:24,2.82373,0.115479,-4.642578
16:44:24,1.431152,0.053467,-5.57373
16:44:24,1.792236,0.056885,-3.411133
16:44:24,1.987793,-0.183105,-0.229736
16:44:24,1.505859,-0.267578,1.005127
16:44:24,1.922852,-0.46582,1.479736
16:44:24,1.266357,-0.657471,1.972656
16:44:24,0.950684,-1.225342,2.467529
16:44:24,-0.007813,-1.27002,1.961182
16:44:24,0.033447,-0.982666,1.042236
16:44:24,1.012207,-1.041992,1.960449
16:44:24,0.901611,-0.75708,1.610596
16:44:24,0.865479,-0.486816,0.522461
16:44:24,2.394287,-0.180664,-0.256348
16:44:24,3.32959,0.934326,-1.257324
16:44:24,2.018066,1.907715,-1.960938
16:44:24,1.003906,2.104248,-1.400635
16:44:24,1.067871,1.633545,-0.340088
16:44:24,0.770508,0.626953,0.411621
16:44:24,0.539063,0.003174,1.142822
16:44:24,0.573975,-0.013184,1.399658
16:44:24,0.366943,-0.010498,0.890137
16:44:24,0.194824,-0.020264,0.513672
16:44:24,0.091064,-0.099121,0.673584
16:44:24,-0.050293,-0.114746,1.070557
16:44:24,-0.114746,-0.070068,1.074219
16:44:24,0.013672,0.0354,0.796631
16:44:24,0.226318,0.073975,0.764648
16:44:24,0.332031,0.141846,0.814697
16:44:24,0.416016,0.266846,0.767578
16:44:24,0.522949,0.450684,0.598877
16:44:24,1.047607,1.063477,0.467773
16:44:24,1.136719,1.29834,0.043945
16:44:24,0.701172,1.060303,-0.409912
16:44:24,0.929688,0.680176,0.017334
16:44:24,1.054443,0.310547,0.459473
16:44:24,0.824707,0.000244,0.595703
16:44:24,0.669922,-0.194092,0.563477
16:44:24,0.731689,-0.326904,0.538574
16:44:24,0.779541,-0.331787,0.405518
16:44:24,0.947021,-0.361328,0.474365
16:44:25,0.934814,-0.375488,0.479004
16:44:25,0.895996,-0.347168,0.533691
16:44:25,0.889648,-0.250732,0.586914
16:44:25,0.854492,-0.126465,0.532959
16:44:25,0.936523,-0.024902,0.517578
16:44:25,1.031006,0.05542,0.518555
16:44:25,0.988525,0.098633,0.575684
16:44:25,0.957764,0.067871,0.710205
16:44:25,0.967529,0.086426,0.774658
16:44:25,0.774658,0.090332,0.753906
16:44:25,0.564453,0.043945,0.573975
16:44:25,0.736328,0.233643,0.972656
16:44:25,0.716064,0.515137,2.444092
16:44:25,0.59375,1.755859,1.877686
16:44:25,1.890869,2.973633,-0.280762
16:44:25,3.157471,3.378906,0.528564
16:44:25,2.359131,2.681641,0.581787
16:44:25,2.432617,3.130859,0.181152
16:44:25,2.539307,2.34668,0.606689
16:44:25,5.976074,4.316406,3.052246
16:44:25,3.068359,2.203857,1.183105
16:44:25,0.625977,0.991211,-0.193359
16:44:25,0.136719,0.496338,-0.099121
16:44:25,0.748291,0.539551,1.185547
16:44:25,0.878418,0.462402,1.916748
16:44:25,0.188477,0.33252,1.949463
16:44:25,-0.542725,0.286621,1.31543
16:44:25,-0.951904,0.353027,0.804932
16:44:25,-0.513672,0.662354,0.979492
16:44:25,0.403809,1.148682,0.970459
16:44:25,0.797363,1.262939,0.479492
16:44:25,0.823242,1.014893,0.218018
16:44:25,0.913574,0.730957,0.405029
16:44:25,1.013184,0.522461,0.651123
16:44:25,1.112305,0.458252,0.741943
16:44:25,1.259277,0.541504,0.72876
16:44:25,1.434326,0.686523,0.685059
16:44:25,1.609863,0.790771,0.67627
16:44:25,1.748535,0.785645,0.674072
16:44:25,1.76416,0.682373,0.627686
16:44:25,1.949219,0.616455,0.719238
16:44:25,3.265137,0.577148,0.842773
16:44:25,5.292236,0.357666,0.224121
16:44:25,4.43335,0.149902,-1.29248
16:44:25,1.932373,0.116943,-2.19873
16:44:25,0.7146,-0.179932,-1.388428
16:44:25,1.705322,0.225098,-2.367676
16:44:25,0.400635,0.037598,-5.459961
16:44:25,2.644531,-0.889648,-6.378906
16:44:25,1.177734,-0.016846,-6.385986
16:44:25,-1.201172,0.26123,-4.799561
16:44:25,-2.054443,0.884277,-5.29541
16:44:25,-1.924316,0.797607,-3.380371
16:44:25,6.699463,-3.007568,4.393311
16:44:25,5.949219,-1.620361,3.647217
16:44:25,0.702148,-0.201904,-0.071533
16:44:25,-0.219971,0.326416,-1.484619
16:44:25,3.725098,2.08667,1.767822
16:44:25,2.579346,1.752197,0.980713
16:44:25,-0.108887,0.90625,-1.539551
16:44:25,1.40625,0.786377,-0.204834
16:44:25,1.881104,0.249512,0.709961
16:44:25,0.61792,-0.152588,0.226807
16:44:25,0.630371,-0.271973,0.505127
16:44:25,0.902832,-0.391113,0.810791
16:44:25,0.690674,-0.480469,0.649902
16:44:25,0.602539,-0.537354,0.579346
16:44:25,0.719238,-0.614746,0.813477
16:44:25,0.661377,-0.568604,0.792725
16:44:25,0.615479,-0.427002,0.610352
16:44:25,0.696289,-0.288086,0.598633
16:44:25,0.721191,-0.126953,0.550781
16:44:25,0.848145,0.088379,0.479248
16:44:25,0.969238,0.35498,0.344482
16:44:25,1.236328,0.877197,0.246094
16:44:25,0.996094,1.109619,-0.095703
16:44:25,0.756592,0.908203,-0.017578
16:44:25,0.754883,0.480225,0.527832
16:44:25,0.663574,0.187012,0.836426
16:44:25,0.508057,0.072021,0.70166
16:44:25,0.432617,0.04541,0.628906
16:44:25,0.496094,0.048584,0.744873
16:44:25,0.513428,0.109619,0.65625
16:44:25,0.595703,0.208252,0.567383
16:44:25,0.784668,0.269043,0.495605
16:44:25,0.880615,0.250977,0.447998
16:44:25,0.991699,0.179199,0.342773
16:44:25,1.047852,0.037354,0.317627
16:44:25,0.974854,-0.095947,0.392578
16:44:25,0.868164,-0.15625,0.489014
16:44:25,0.802734,-0.146973,0.604004
16:44:25,0.745117,-0.120605,0.704102
16:44:25,0.672607,-0.09082,0.753418
16:44:25,0.638184,-0.024414,0.749023
16:44:25,0.702148,0.146484,0.722412
16:44:25,0.79126,0.328857,0.692627
16:44:25,0.696533,0.279785,0.688477
16:44:25,0.659668,0.283936,0.711426
16:44:25,0.721924,0.231445,0.707275
16:44:26,0.634521,0.095459,0.651367
16:44:26,0.954102,0.14502,0.697021
16:44:26,0.808594,0.213379,0.877441
16:44:26,0.849121,0.560303,1.545654
16:44:26,0.703125,1.366699,2.118408
16:44:26,1.555664,2.269287,0.520996
16:44:26,2.378418,2.256348,0.528809
16:44:26,2.179199,2.14209,0.517822
16:44:26,2.435303,2.876221,-0.053955
16:44:26,1.671387,2.343018,-0.667236
16:44:26,4.2146,2.708008,1.186768
16:44:26,6.466064,3.314453,2.400146
16:44:26,3.280518,1.733887,0.557129
16:44:26,0.673828,0.569336,-0.532715
16:44:26,0.71875,0.387451,0.068359
16:44:26,1.32373,0.307861,0.944336
16:44:26,1.253174,0.043945,1.539063
16:44:26,0.691895,-0.127686,1.32666
16:44:26,0.282227,-0.128174,0.697754
16:44:26,0.249268,-0.138428,0.580566
16:44:26,0.336914,-0.169189,0.748535
16:44:26,0.339844,-0.172119,0.736572
16:44:26,0.327393,-0.141357,0.651123
16:44:26,0.351074,-0.087891,0.61792
16:44:26,0.420654,-0.026123,0.690186
16:44:26,0.595947,0.085205,0.807129
16:44:26,1.077637,0.553223,0.865723
16:44:26,1.706787,1.364014,0.65625
16:44:26,1.583252,1.502441,0.093994
16:44:26,1.643066,1.380859,0.062744
16:44:26,1.931641,1.00415,0.429199
16:44:26,1.733643,0.42334,0.473877
16:44:26,1.740967,0.121826,0.513916
16:44:26,2.439941,-0.11084,0.875732
16:44:26,4.464355,-1.526855,1.44458
16:44:26,4.981445,-1.643799,-0.977051
16:44:26,3.374268,-1.182861,-3.611572
16:44:26,2.719482,-1.049072,-5.446777
16:44:26,2.011475,0.454102,-5.675781
16:44:26,0.506592,0.785889,-4.419189
16:44:26,-0.312012,0.43042,-3.412354
16:44:26,0.087402,-0.019287,-3.041748
16:44:26,-0.300781,0.280273,-3.643066
16:44:26,-1.675537,0.658203,-5.73584
16:44:26,-0.645996,0.540283,-4.126465
16:44:26,4.223389,-1.610596,0.631836
16:44:26,6.809082,-2.282227,2.231689
16:44:26,3.417725,-0.845947,1.301514
16:44:26,0.05835,-0.161865,0.066895
16:44:26,0.879639,-0.190186,0.710938
16:44:26,2.544678,-0.174072,2.478027
16:44:26,1.834229,0.123779,1.032227
16:44:26,0.744629,0.701172,-0.837891
16:44:26,1.870117,1.586914,-0.716064
16:44:26,2.188477,1.451904,-0.588867
16:44:26,1.294678,0.513916,-0.549561
16:44:26,1.398926,-0.08252,0.278564
16:44:26,0.984619,-0.386719,0.418701
16:44:26,0.723145,-0.435547,0.42749
16:44:26,0.783447,-0.476074,0.624756
16:44:26,0.754883,-0.51709,0.803711
16:44:26,0.557373,-0.498779,0.748535
16:44:26,0.424561,-0.439453,0.703125
16:44:26,0.420654,-0.398438,0.748779
16:44:26,0.426514,-0.298828,0.727783
16:44:26,0.531738,-0.200439,0.649902
16:44:26,0.683838,-0.051758,0.658203
16:44:26,0.793457,0.156006,0.530029
16:44:26,0.899902,0.39502,0.319092
16:44:26,1.258545,0.977051,0.141357
16:44:26,0.963623,1.090332,-0.2146
16:44:26,0.805908,0.794922,0.008057
16:44:26,0.837646,0.406982,0.55542
16:44:26,0.729004,0.171387,0.731201
16:44:26,0.551758,0.092529,0.589111
16:44:26,0.533447,0.0625,0.582764
16:44:26,0.62085,0.056641,0.660156
16:44:26,0.654053,0.076416,0.568115
16:44:26,0.749268,0.102783,0.486816
16:44:26,0.814453,0.080078,0.431885
16:44:26,0.787842,0.023682,0.393555
16:44:26,0.851318,-0.003662,0.470703
16:44:26,0.91333,-0.010254,0.439697
16:44:26,0.941406,-0.064453,0.481201
16:44:26,0.915527,-0.099609,0.499268
16:44:26,0.876221,-0.09375,0.488525
16:44:26,0.822266,-0.093262,0.544678
16:44:26,0.824951,-0.095215,0.625732
16:44:26,0.793945,-0.109375,0.729736
16:44:26,0.780518,-0.091064,0.798828
16:44:26,0.780273,-0.016357,0.796875
16:44:26,0.901611,0.046631,0.791504
16:44:26,0.899414,-0.010254,0.932617
16:44:26,0.789063,-0.017578,0.845947
16:44:26,0.735596,-0.069092,0.886719
16:44:26,1.378662,0.385742,1.282715
16:44:26,2.196045,1.442383,1.762451
16:44:26,2.452148,1.669678,1.499756
16:44:26,2.628662,2.223389,1.228027
16:44:26,2.403809,2.97998,0.33374
16:44:26,1.226318,2.360596,-0.558838
16:44:27,6.262207,2.749268,1.409912
16:44:27,6.542725,2.106445,1.953857
16:44:27,1.561279,0.617188,0.583008
16:44:27,0.451904,0.447266,0.508057
16:44:27,1.177979,0.941406,1.202393
16:44:27,0.956543,1.151367,0.982422
16:44:27,-0.022949,0.882568,0.364014
16:44:27,-1.261963,0.905029,1.234375
16:44:27,-2.172363,1.126709,1.517334
16:44:27,-1.243896,1.353516,0.388184
16:44:27,0.385742,1.718018,0.856445
16:44:27,0.887695,1.321289,0.760498
16:44:27,0.739258,0.722412,0.392578
16:44:27,0.750732,0.44165,0.538818
16:44:27,0.902588,0.337891,0.771973
16:44:27,1.030029,0.275391,0.878418
16:44:27,1.10376,0.285645,0.791504
16:44:27,1.268799,0.392578,0.75
16:44:27,1.50415,0.540283,0.797119
16:44:27,1.665771,0.641113,0.741699
16:44:27,2.161621,0.5625,0.719482
16:44:27,2.015381,0.32666,0.209961
16:44:27,1.441406,0.132813,0.020996
16:44:27,2.574951,0.447266,0.901367
16:44:27,4.344727,-0.373535,1.351318
16:44:27,4.764893,-1.133057,-0.866455
16:44:27,3.330078,-1.191162,-4.058105
16:44:27,2.483887,-0.97583,-5.93457
16:44:27,1.998779,0.563477,-5.582275
16:44:27,0.474365,1.045654,-4.145996
16:44:27,-0.451416,0.549072,-3.143066
16:44:27,-0.033447,0.243408,-2.911133
16:44:27,0.579346,0.11792,-3.496338
16:44:27,1.329834,0.346191,-3.791016
16:44:27,0.941406,0.268311,-3.260986
16:44:27,-0.334961,0.150635,-2.193848
16:44:27,1.306885,-0.533203,0.478516
16:44:27,3.548828,-1.625977,2.326172
16:44:27,2.383789,-1.0271,1.410645
16:44:27,1.296631,-1.164795,1.41748
16:44:27,0.887695,-1.319824,0.782471
16:44:27,2.26416,-2.27417,1.365723
16:44:27,3.240967,-2.54248,1.339111
16:44:27,0.797119,-0.851318,-0.56665
16:44:27,0.739746,-0.578613,-0.228027
16:44:27,1.650391,-0.364502,0.490723
16:44:27,1.85791,0.537109,0.030762
16:44:27,1.766357,1.613525,-0.700195
16:44:27,1.199707,1.88208,-1.10791
16:44:27,1.009766,1.335693,-0.490723
16:44:27,0.852295,0.578613,0.266357
16:44:27,0.836914,0.139648,0.98999
16:44:27,0.569824,-0.030762,0.964111
16:44:27,0.369385,-0.06665,0.73584
16:44:27,0.384766,-0.038574,0.678467
16:44:27,0.416504,-0.113037,0.844238
16:44:27,0.380859,-0.135498,0.883789
16:44:27,0.32251,-0.087158,0.744629
16:44:27,0.349365,-0.041504,0.696289
16:44:27,0.521729,0.052734,0.757568
16:44:27,0.671875,0.200684,0.656982
16:44:27,0.978271,0.632813,0.423096
16:44:27,1.151611,0.997559,0.069336
16:44:27,1.035889,0.807861,-0.144775
16:44:27,1.133789,0.398926,0.125244
16:44:27,1.025879,0.030029,0.400391
16:44:27,0.692627,-0.081543,0.549072
16:44:27,0.570557,-0.064209,0.687012
16:44:27,0.601318,-0.032959,0.708984
16:44:27,0.585693,0.057861,0.582764
16:44:27,0.709229,0.227783,0.491943
16:44:27,0.899902,0.503418,0.35376
16:44:27,0.963623,0.518311,0.14624
16:44:27,1.032715,0.260986,0.244385
16:44:27,0.999512,-0.031982,0.437988
16:44:27,0.913086,-0.136719,0.541992
16:44:27,0.792969,-0.155518,0.58252
16:44:27,0.726563,-0.157471,0.712402
16:44:27,0.690674,-0.14917,0.814209
16:44:27,0.677246,-0.101563,0.850586
16:44:27,0.726807,-0.011719,0.913818
16:44:27,0.942627,0.181152,0.818115
16:44:27,0.701416,0.11792,0.738037
16:44:27,0.665527,0.101074,0.717285
16:44:27,0.963867,0.399658,1.166016
16:44:27,0.783691,0.781494,2.154297
16:44:27,0.960693,1.860596,1.538574
16:44:27,2.027832,2.660889,0.47583
16:44:27,2.845215,2.801758,0.853271
16:44:27,2.546387,2.770264,0.671143
16:44:27,1.370361,2.183105,-0.466064
16:44:27,3.010742,2.310791,1.036377
16:44:27,5.927979,2.874512,3.386719
16:44:27,3.610596,1.598877,1.757324
16:44:27,0.36377,0.157715,-0.228027
16:44:27,0.366943,0.007813,0.365967
16:44:27,1.398926,0.259766,1.442627
16:44:27,1.770752,0.304443,2.057129
16:44:27,0.817627,0.160156,1.403076
16:44:27,0.525146,0.428467,0.656738
16:44:28,0.713379,0.82373,0.584717
16:44:28,0.656494,0.904297,0.424072
16:44:28,0.401611,0.744385,0.344238
16:44:28,0.390137,0.584961,0.464844
16:44:28,0.419922,0.377197,0.545898
16:44:28,0.413818,0.223877,0.492676
16:44:28,0.498291,0.264404,0.464844
16:44:28,0.663818,0.450684,0.355957
16:44:28,0.984619,0.725098,0.456787
16:44:28,1.36377,0.958984,0.674072
16:44:28,1.572998,0.975098,0.756592
16:44:28,1.641113,0.878418,0.734619
16:44:28,1.891113,0.742432,0.707031
16:44:28,2.023193,0.61084,0.628662
16:44:28,2.29834,0.633789,0.65625
16:44:28,2.8396,0.471924,0.72876
16:44:28,4.610596,-1.249268,0.277344
16:44:28,4.410645,-1.630615,-2.553223
16:44:28,2.254395,-0.956543,-5.92041
16:44:28,1.938721,-0.485107,-6.003662
16:44:28,1.288574,0.854736,-4.174316
16:44:28,-0.30957,0.812256,-3.052246
16:44:28,-0.505859,0.421875,-2.780029
16:44:28,0.105957,0.236572,-3.052734
16:44:28,0.391357,-0.106201,-3.716553
16:44:28,-0.460693,-0.051514,-4.157715
16:44:28,0.788086,-0.651367,-2.448242
16:44:28,4.370605,-2.157959,0.4729
16:44:28,4.433838,-2.06665,0.735107
16:44:28,2.376221,-1.131348,1.130127
16:44:28,1.02124,-0.706299,1.060791
16:44:28,1.215332,-0.796143,1.572754
16:44:28,1.960449,-0.917725,2.525391
16:44:28,1.424316,-0.524414,1.021484
16:44:28,1.605957,-0.169678,-0.29834
16:44:28,1.125244,0.131104,-0.74292
16:44:28,1.633301,0.269775,-0.003174
16:44:28,2.156006,0.923828,-0.020752
16:44:28,1.24707,0.966797,-0.650635
16:44:28,1.095703,0.571289,-0.141846
16:44:28,1.145264,0.199463,0.490234
16:44:28,0.80835,0.014893,0.526367
16:44:28,0.60791,-0.065674,0.558594
16:44:28,0.616455,-0.139893,0.74707
16:44:28,0.560791,-0.152832,0.814697
16:44:28,0.445068,-0.154297,0.751709
16:44:28,0.402344,-0.141602,0.693848
16:44:28,0.483887,-0.057617,0.704834
16:44:28,0.636719,0.072998,0.668701
16:44:28,0.836182,0.319824,0.489014
16:44:28,1.087646,0.739014,0.26416
16:44:28,1.058594,1.032715,-0.018311
16:44:28,0.829834,0.865234,-0.077148
16:44:28,0.908691,0.543945,0.367188
16:44:28,0.763916,0.20459,0.615234
16:44:28,0.657715,0.081299,0.616943
16:44:28,0.574219,0.039307,0.526367
16:44:28,0.652344,0.030029,0.564941
16:44:28,0.73877,0.031982,0.55957
16:44:28,0.750244,0.046631,0.499023
16:44:28,0.779541,0.03125,0.486572
16:44:28,0.807373,0.045654,0.414063
16:44:28,0.865479,0.049316,0.350098
16:44:28,0.913574,0.027344,0.319824
16:44:28,0.954346,-0.042969,0.402344
16:44:28,0.922607,-0.108887,0.437744
16:44:28,0.874756,-0.16333,0.521729
16:44:28,0.824951,-0.18335,0.576904
16:44:28,0.80542,-0.130615,0.557617
16:44:28,0.762451,-0.101074,0.605713
16:44:28,0.741699,-0.079102,0.683594
16:44:28,0.808838,0,0.67334
16:44:28,0.936279,0.175781,0.585938
16:44:28,0.895508,0.195068,0.621094
16:44:28,0.882324,0.040527,0.722168
16:44:28,0.916992,-0.021729,0.744141
16:44:28,0.804199,0.006836,0.697998
16:44:28,1.19873,0.326416,1.016602
16:44:28,1.97998,1.116943,1.67749
16:44:28,2.256104,1.626221,1.603271
16:44:28,2.332764,1.653564,1.071777
16:44:28,2.181152,2.177002,0.60083
16:44:28,2.174561,2.465088,-0.219482
16:44:28,3.819824,2.388916,0.562744
16:44:28,6.435303,3.27002,2.877686
16:44:28,2.934814,1.332275,0.62085
16:44:28,1.015625,0.549561,-0.135498
16:44:28,1.370361,0.473877,0.683838
16:44:28,2.217529,0.812012,1.675049
16:44:28,1.514404,0.52417,1.820068
16:44:28,0.583008,0.289551,0.890137
16:44:28,0.32959,0.358154,0.602295
16:44:28,0.407959,0.556885,0.768066
16:44:28,0.317871,0.552979,0.778564
16:44:28,0.01709,0.472412,0.762695
16:44:28,-0.131104,0.500977,0.704346
16:44:28,0.108643,0.592529,0.598389
16:44:28,0.449951,0.609131,0.586426
16:44:28,0.641357,0.563232,0.572754
16:44:29,0.795166,0.579102,0.541748
16:44:29,1.067871,0.697998,0.662109
16:44:29,1.375488,0.787354,0.878662
16:44:29,1.581787,0.775391,0.962891
16:44:29,1.609863,0.686523,0.924805
16:44:29,2.196533,0.597412,0.890137
16:44:29,2.459717,0.435791,0.863037
16:44:29,2.470947,0.45874,1.177002
16:44:29,3.638184,0.418945,1.362305
16:44:29,4.176025,-0.785645,0.064697
16:44:29,4.316162,-1.555908,-2.558838
16:44:29,2.554443,-1.034668,-5.613525
16:44:29,2.029297,-1.224121,-6.317139
16:44:29,1.631592,0.335938,-4.585938
16:44:29,-0.000244,0.458252,-3.284668
16:44:29,-0.311279,0.367188,-2.980225
16:44:29,0.049072,0.303711,-3.428711
16:44:29,0.96875,0.139404,-4.034912
16:44:29,0.056885,-0.026367,-4.62207
16:44:29,-0.021484,-0.443604,-2.382813
16:44:29,3.45874,-1.444092,0.745117
16:44:29,3.529297,-0.969727,0.920898
16:44:29,2.255859,-0.650635,1.952393
16:44:29,1.375244,-0.608887,2.3125
16:44:29,0.762451,-0.493408,1.438721
16:44:29,0.847168,-0.511475,1.457031
16:44:29,1.75415,-0.440186,1.715576
16:44:29,2.053711,-0.108887,0.731201
16:44:29,2.267822,0.535645,-0.342773
16:44:29,2.238037,1.275391,-1.057861
16:44:29,1.631592,1.656006,-1.247314
16:44:29,1.131592,1.353027,-0.553711
16:44:29,0.859375,0.630371,0.36499
16:44:29,0.739258,0.135742,0.975098
16:44:29,0.609131,-0.024658,1.049072
16:44:29,0.396729,-0.123535,0.777588
16:44:29,0.39917,-0.179932,0.763184
16:44:29,0.407227,-0.2229,0.806885
16:44:29,0.402832,-0.262207,0.812988
16:44:29,0.384766,-0.263672,0.785889
16:44:29,0.368652,-0.219971,0.733887
16:44:29,0.385986,-0.12793,0.704102
16:44:29,0.588623,0.037354,0.736084
16:44:29,1.124268,0.319092,0.627441
16:44:29,1.447998,0.905762,0.118652
16:44:29,0.974365,1.209717,-0.39917
16:44:29,0.860596,1.25708,-0.355469
16:44:29,0.913086,0.846436,0.22998
16:44:29,0.728271,0.324219,0.617188
16:44:29,0.629883,0.086426,0.799316
16:44:29,0.498535,0.009033,0.666504
16:44:29,0.493896,-0.028809,0.642334
16:44:29,0.584717,-0.024658,0.712158
16:44:29,0.610352,0.001221,0.617676
16:44:29,0.753174,0.050293,0.490723
16:44:29,0.928467,0.063477,0.387207
16:44:29,1.001221,0.085938,0.326904
16:44:29,1.068359,0.037109,0.327881
16:44:29,1.062744,-0.075928,0.400146
16:44:29,0.927002,-0.130615,0.561523
16:44:29,0.758789,-0.123047,0.694824
16:44:29,0.675049,-0.098145,0.750488
16:44:29,0.649414,-0.058838,0.769043
16:44:29,0.606445,-0.020508,0.776123
16:44:29,0.627441,0.072021,0.809326
16:44:29,0.67334,0.216553,0.805908
16:44:29,0.749512,0.236328,0.783691
16:44:29,0.862061,0.188965,0.695313
16:44:29,0.732666,0.164551,0.601074
16:44:29,0.897217,0.274658,1.141357
16:44:29,0.955078,0.691895,1.758057
16:44:29,0.612793,1.336182,1.77832
16:44:29,1.667725,2.45874,0.664063
16:44:29,2.746094,2.801025,0.691895
16:44:29,2.456787,2.51709,0.846924
16:44:29,1.73291,2.411865,-0.201172
16:44:29,1.411621,1.453369,-0.190674
16:44:29,5.385498,2.911621,2.622559
16:44:29,5.367188,2.300049,2.751709
16:44:29,2.178467,1,0.518066
16:44:29,0.769043,0.517578,0.070557
16:44:29,1.393066,0.821777,0.593506
16:44:29,1.815674,1.008545,1.312744
16:44:29,1.154053,0.629883,1.331299
16:44:29,0.459961,0.384277,0.684814
16:44:29,0.228516,0.251709,0.591553
16:44:29,0.209717,0.191406,0.753418
16:44:29,0.122559,0.226807,0.674316
16:44:29,-0.094238,0.265625,0.532715
16:44:29,-0.122803,0.424316,0.520264
16:44:29,0.122559,0.629883,0.540771
16:44:29,0.437012,0.726807,0.526611
16:44:29,0.80542,0.810547,0.692871
16:44:29,1.181885,0.956299,0.861328
16:44:29,1.471436,1.061279,0.86084
16:44:29,1.572754,0.966797,0.773438
16:44:29,1.439697,0.687744,0.630127
16:44:29,1.57666,0.468018,0.606201
16:44:29,2.232666,0.451904,0.765137
16:44:29,2.417236,0.287109,0.927246
16:44:29,3.637695,0.081787,1.185547
16:44:30,5.244141,-1.982422,0.55249
16:44:30,3.976074,-1.225342,-3.656006
16:44:30,1.721924,-1.12793,-6.239258
16:44:30,2.633057,-0.522705,-6.166992
16:44:30,0.945068,0.941162,-4.742188
16:44:30,-0.335693,0.629395,-3.43042
16:44:30,-0.114746,0.269287,-2.739746
16:44:30,-0.658691,0.310791,-3.496582
16:44:30,-2.400879,0.714355,-5.793213
16:44:30,-0.218262,-0.540039,-3.567871
16:44:30,4.928467,-2.713867,0.147949
16:44:30,6.444092,-2.503174,1.11792
16:44:30,3.28833,-0.815918,1.084961
16:44:30,0.746094,-0.132324,0.696777
16:44:30,1.723145,0.218506,1.438477
16:44:30,2.836426,1.182129,1.756836
16:44:30,1.378662,1.441162,-0.312988
16:44:30,0.577881,1.51123,-1.376953
16:44:30,1.615479,1.738281,-0.283936
16:44:30,1.503174,0.857178,0.235596
16:44:30,0.795654,0.015381,0.178223
16:44:30,0.872803,-0.19165,0.571045
16:44:30,0.793457,-0.379395,0.644531
16:44:30,0.719971,-0.490723,0.552979
16:44:30,0.743652,-0.577148,0.626953
16:44:30,0.754639,-0.655518,0.746338
16:44:30,0.655762,-0.651367,0.694092
16:44:30,0.623047,-0.578125,0.650146
16:44:30,0.665527,-0.451904,0.617676
16:44:30,0.783691,-0.288574,0.5271
16:44:30,0.764404,-0.143799,0.469238
16:44:30,0.895508,0.059082,0.459229
16:44:30,0.993896,0.265625,0.331787
16:44:30,1.210693,0.678467,0.225342
16:44:30,1.118408,1.009521,-0.065674
16:44:30,0.843506,0.879883,-0.07373
16:44:30,0.789063,0.499023,0.382324
16:44:30,0.71875,0.205811,0.706543
16:44:30,0.56543,0.100098,0.655518
16:44:30,0.511719,0.073975,0.583984
16:44:30,0.564209,0.085205,0.638428
16:44:30,0.603027,0.150391,0.587891
16:44:30,0.728027,0.222412,0.499268
16:44:30,0.892822,0.28833,0.415527
16:44:30,0.923828,0.335693,0.296875
16:44:30,0.916748,0.317383,0.244141
16:44:30,0.959961,0.208008,0.336914
16:44:30,0.916748,0.071777,0.455078
16:44:30,0.821045,-0.03833,0.535645
16:44:30,0.757324,-0.110352,0.630127
16:44:30,0.620361,-0.129395,0.675537
16:44:30,0.554199,-0.182129,0.771484
16:44:30,0.59668,-0.167969,0.759766
16:44:30,0.633545,-0.124268,0.70166
16:44:30,0.746826,-0.045654,0.647461
16:44:30,0.765137,0.007813,0.672852
16:44:30,0.970703,0.068604,0.740967
16:44:30,1.41748,0.307373,0.323486
16:44:30,1.214844,0.310303,0.269287
16:44:30,0.743164,-0.064697,0.987549
16:44:30,0.872314,-0.183105,1.161621
16:44:30,1.478271,0.538086,2.011475
16:44:30,1.555664,1.025146,1.620605
16:44:30,2.30957,1.407959,1.156982
16:44:30,2.613037,2.460205,0.624512
16:44:30,1.955811,3.166016,-0.479492
16:44:30,1.430908,2.328369,-0.940918
16:44:30,6.899902,2.859619,2.233154
16:44:30,6.233887,2.170166,1.419189
16:44:30,1.354004,1.054688,-0.663086
16:44:30,0.000977,0.840332,-0.479492
16:44:30,0.677002,0.962646,0.618164
16:44:30,0.624023,0.970459,0.993408
16:44:30,-1.135986,0.966553,1.682861
16:44:30,-3.016357,1.140625,1.36084
16:44:30,-2.095703,1.83252,0.061768
16:44:30,0.352295,2.584473,0.618652
16:44:30,1.020264,1.960205,0.529785
16:44:30,0.581543,0.824463,-0.001465
16:44:30,0.61377,0.408691,0.421143
16:44:30,0.756348,0.21167,0.736572
16:44:30,0.890625,0.142578,0.821777
16:44:30,1.109131,0.235352,0.830322
16:44:30,1.387939,0.486572,0.775146
16:44:30,1.648926,0.849609,0.593018
16:44:30,1.821777,1.072754,0.386963
16:44:30,1.817139,0.994141,0.265869
16:44:30,2.041504,0.787842,0.418213
16:44:30,2.153809,0.539551,0.495117
16:44:30,2.681885,0.609863,0.838379
16:44:30,3.490479,0.704834,1.024414
16:44:30,4.841797,-1.417725,0.784912
16:44:30,4.421875,-1.512695,-2.261963
16:44:30,2.406982,-1.418701,-4.849609
16:44:30,2.351563,-0.874023,-5.724121
16:44:30,1.456055,0.26001,-4.784912
16:44:30,0.120117,0.371094,-3.465332
16:44:30,-0.166992,0.134521,-2.888428
16:44:30,0.144775,0.187988,-3.345459
16:44:30,1.053711,0.44165,-3.984619
16:44:31,0.025146,0.39917,-4.806641
16:44:31,-0.662354,-0.126709,-3.325439
16:44:31,2.899414,-1.508301,0.37793
16:44:31,4.544678,-1.666016,1.590088
16:44:31,2.134766,-0.509277,1.258301
16:44:31,1.213135,-0.718262,1.896973
16:44:31,1.013184,-0.778564,1.690186
16:44:31,0.78833,-0.775391,1.240479
16:44:31,1.282715,-0.862061,1.438477
16:44:31,1.769531,-0.688965,1.022461
16:44:31,1.086426,-0.233887,0.050049
16:44:31,1.501709,0.156006,0.017334
16:44:31,2.330078,0.963623,-0.475342
16:44:31,1.904053,1.466309,-1.137207
16:44:31,1.532471,1.232178,-0.982178
16:44:31,1.515137,0.483154,-0.155029
16:44:31,1.14624,0.068848,0.166504
16:44:31,0.900879,-0.181885,0.473145
16:44:31,0.723877,-0.28418,0.589111
16:44:31,0.65918,-0.352051,0.730469
16:44:31,0.546875,-0.358887,0.766357
16:44:31,0.443115,-0.377686,0.770264
16:44:31,0.379883,-0.348877,0.741943
16:44:31,0.36084,-0.293945,0.741455
16:44:31,0.496094,-0.213135,0.703125
16:44:31,0.534668,-0.121094,0.609131
16:44:31,0.673584,-0.003174,0.65625
16:44:31,0.927734,0.320557,0.533203
16:44:31,1.225098,0.971191,0.182617
16:44:31,1.032715,1.262207,-0.292236
16:44:31,0.806885,1.004639,-0.259277
16:44:31,0.913818,0.582031,0.308594
16:44:31,0.811035,0.189941,0.629395
16:44:31,0.640381,0.014893,0.654785
16:44:31,0.534668,-0.062988,0.587158
16:44:31,0.576172,-0.094238,0.625732
16:44:31,0.651123,-0.118408,0.634766
16:44:31,0.722168,-0.089844,0.503662
16:44:31,0.798096,0.004639,0.342773
16:44:31,0.934326,0.039795,0.412109
16:44:31,0.990234,0.043457,0.400879
16:44:31,0.963623,-0.01001,0.381836
16:44:31,0.918213,-0.082275,0.491699
16:44:31,0.88916,-0.094238,0.531982
16:44:31,0.844482,-0.108887,0.543945
16:44:31,0.844238,-0.110107,0.676025
16:44:31,0.82251,-0.098389,0.757324
16:44:31,0.899414,-0.056885,0.787842
16:44:31,1.022705,-0.000977,0.855225
16:44:31,1.025635,-0.053955,0.849121
16:44:31,0.675049,0.067871,0.598633
16:44:31,0.747559,-0.036621,0.749756
16:44:31,1.323242,0.378906,1.831543
16:44:31,1.555664,1.12793,1.925781
16:44:31,1.967041,1.392578,1.101563
16:44:31,2.388428,1.910156,0.666016
16:44:31,2.27124,2.602783,0.0354
16:44:31,1.599121,2.811523,-0.652832
16:44:31,5.593018,3.241455,0.366211
16:44:31,7.670166,2.809326,1.358154
16:44:31,2.818604,1.250977,0.65625
16:44:31,0.472412,0.590088,0.156006
16:44:31,0.766602,0.624268,0.580566
16:44:31,0.793213,0.646973,1.116699
16:44:31,0.378662,0.577148,1.106445
16:44:31,-0.508057,0.594971,1.38501
16:44:31,-1.500977,0.848389,1.339111
16:44:31,-1.178223,1.267334,0.41626
16:44:31,0.287109,1.921631,0.640869
16:44:31,0.882324,1.566895,0.593506
16:44:31,0.711914,0.835205,0.317383
16:44:31,0.721924,0.466309,0.446045
16:44:31,0.827148,0.312988,0.608398
16:44:31,0.957764,0.307129,0.65625
16:44:31,1.100098,0.429688,0.615967
16:44:31,1.30249,0.624512,0.562988
16:44:31,1.521484,0.768311,0.600098
16:44:31,1.665039,0.788574,0.61377
16:44:31,1.672852,0.662842,0.670166
16:44:31,1.749756,0.637207,0.807129
16:44:31,3.786133,0.269043,0.931396
16:44:31,4.206787,-0.183594,0.253418
16:44:31,3.870117,-0.128418,-0.527344
16:44:31,2.82959,0.125,-0.762695
16:44:31,1.362549,0.143555,-0.466309
16:44:31,1.441406,0.530762,-0.742188
16:44:31,2.10376,-0.157959,-2.14209
16:44:31,1.856445,-0.995117,-5.381836
16:44:31,2.12793,-0.898926,-7.682617
16:44:31,1.970703,0.074707,-6.092529
16:44:31,0.304688,1.27002,-3.664063
16:44:31,-0.748291,0.508789,-2.947998
16:44:31,-1.596436,0.240479,-3.187744
16:44:31,0.421143,0.272461,-1.04248
16:44:31,5.286865,-0.546631,2.387451
16:44:31,3.900146,-1.584961,1.248047
16:44:31,0.942383,-0.7854,0.61377
16:44:31,1.322998,-1.385498,1.19458
16:44:31,2.060059,-2.04541,1.525635
16:44:31,2.348389,-2.192627,1.494141
16:44:32,1.081055,-1.063232,0.000977
16:44:32,1.177002,-0.84375,0.165039
16:44:32,1.470703,-0.458984,0.267334
16:44:32,1.659424,0.262695,-0.077881
16:44:32,2.063477,1.367676,-0.564453
16:44:32,1.604492,1.759766,-1.013428
16:44:32,1.135742,1.250977,-0.589844
16:44:32,0.983643,0.554932,0.16748
16:44:32,0.878418,0.162354,0.739746
16:44:32,0.579346,-0.024658,0.808594
16:44:32,0.426025,-0.108643,0.750244
16:44:32,0.386963,-0.150391,0.816406
16:44:32,0.376953,-0.213135,0.853516
16:44:32,0.344727,-0.243408,0.774658
16:44:32,0.334473,-0.230225,0.770752
16:44:32,0.376465,-0.210938,0.839355
16:44:32,0.393066,-0.1604,0.795166
16:44:32,0.412598,-0.071777,0.695313
16:44:32,0.582031,0.071045,0.687256
16:44:32,0.867188,0.268799,0.598877
16:44:32,1.06958,0.400635,0.264648
16:44:32,1.222168,0.439941,0.019043
16:44:32,1.226807,0.494873,0.005859
16:44:32,1.03418,0.519287,0.185059
16:44:32,0.748535,0.369385,0.429688
16:44:32,0.678467,0.217041,0.574463
16:44:32,0.563721,0.095947,0.624756
16:44:32,0.531738,0.07373,0.561035
16:44:32,0.599365,0.029541,0.593994
16:44:32,0.790527,0.001465,0.57959
16:44:32,1.062744,-0.087891,0.479492
16:44:32,1.127197,-0.120605,0.345703
16:44:32,1.089111,-0.157227,0.429688
16:44:32,0.904785,-0.120605,0.517334
16:44:32,0.750977,-0.086426,0.650879
16:44:32,0.648926,-0.058838,0.85376
16:44:32,0.576172,-0.01709,0.987793
16:44:32,0.540527,0.024414,1.003906
16:44:32,0.595459,0.107178,0.964355
16:44:32,0.513672,0.114014,0.812744
16:44:32,0.407959,0.058838,0.706299
16:44:32,0.739014,0.060303,0.988037
16:44:32,1.098145,0.496338,1.559814
16:44:32,1.286133,1.637451,1.644287
16:44:32,1.479492,2.351563,0.702393
16:44:32,2.083496,2.111328,0.216309
16:44:32,2.980225,2.442871,0.769043
16:44:32,2.996826,3.253174,0.454834
16:44:32,2.345215,2.467773,-0.187256
16:44:32,4.279541,2.304688,1.151855
16:44:32,6.848633,3.853271,2.24585
16:44:32,2.117188,1.186035,-0.200439
16:44:32,0.703857,0.539795,-0.358398
16:44:32,1.000244,0.265381,0.488037
16:44:32,1.355225,0.101074,1.138184
16:44:32,1.364014,-0.111816,1.652344
16:44:32,0.874756,-0.15918,1.425293
16:44:32,0.422852,-0.187256,0.782959
16:44:32,0.27124,-0.202881,0.46167
16:44:32,0.249268,-0.19043,0.520996
16:44:32,0.258301,-0.160645,0.567139
16:44:32,0.30957,-0.148682,0.634277
16:44:32,0.393555,-0.094482,0.738525
16:44:32,0.486328,-0.05127,0.816406
16:44:32,0.609131,-0.024414,0.931641
16:44:32,1.008057,0.321533,0.99585
16:44:32,1.544189,0.934814,0.786865
16:44:32,1.769531,1.201172,0.271484
16:44:32,1.673584,1.169922,-0.034424
16:44:32,1.838623,0.979004,0.207275
16:44:32,2.048828,0.666748,0.450195
16:44:32,2.14209,0.510254,0.474365
16:44:32,3.932861,-0.778809,1.166016
16:44:32,5.36377,-1.68457,0.049316
16:44:32,4.05542,-1.108643,-2.950684
16:44:32,2.623291,-0.796143,-4.7146
16:44:32,1.745361,0.281494,-5.820557
16:44:32,0.804932,0.932373,-5.172119
16:44:32,0.013428,0.263184,-3.825439
16:44:32,0.148193,-0.256836,-3.519287
16:44:32,0.144287,-0.31665,-3.932129
16:44:32,-0.75708,0.182861,-4.504395
16:44:32,-1.429932,0.312012,-4.513916
16:44:32,2.240234,-0.572021,-0.687256
16:44:32,5.836182,-1.76123,1.657715
16:44:32,3.474365,-0.753906,1.566406
16:44:32,1.568115,-0.542969,1.971436
16:44:32,0.731445,-0.285889,0.78418
16:44:32,1.687988,-0.204346,1.987793
16:44:32,2.10083,0.050781,1.812012
16:44:32,1.12793,0.596191,-0.148438
16:44:32,1.579102,1.529785,-0.959717
16:44:32,1.913574,1.82666,-1.190674
16:44:32,2.175537,0.605469,-0.593994
16:44:32,2.041748,-0.512451,-0.255127
16:44:32,1.270752,-0.608887,-0.261963
16:44:32,0.87793,-0.440674,0.130615
16:44:32,0.944092,-0.469971,0.755371
16:44:32,0.742432,-0.504639,0.924805
16:44:32,0.424072,-0.466309,0.758057
16:44:33,0.348633,-0.408691,0.723145
16:44:33,0.383545,-0.347168,0.794434
16:44:33,0.384766,-0.279297,0.778564
16:44:33,0.360596,-0.205811,0.67627
16:44:33,0.439209,-0.112305,0.596191
16:44:33,0.69165,0.027588,0.583496
16:44:33,1.034424,0.353027,0.507813
16:44:33,1.255615,1.000488,0.189697
16:44:33,0.971436,1.38916,-0.185547
16:44:33,0.686035,1.264648,-0.341064
16:44:33,0.747314,0.861084,0.23877
16:44:33,0.66748,0.404053,0.709961
16:44:33,0.502441,0.134277,0.799805
16:44:33,0.436035,0.044922,0.715088
16:44:33,0.450928,0.060547,0.626221
16:44:33,0.579102,0.159424,0.627441
16:44:33,0.746338,0.313232,0.584229
16:44:33,0.823242,0.363281,0.362549
16:44:33,0.967529,0.321045,0.255615
16:44:33,0.982666,0.205566,0.23877
16:44:33,0.824463,0.104736,0.373779
16:44:33,0.821289,0.026611,0.5979
16:44:33,0.845947,-0.055176,0.577393
16:44:33,0.907959,-0.104736,0.483643
16:44:33,0.977539,-0.109619,0.510742
16:44:33,0.928955,-0.12085,0.581299
16:44:33,0.814209,-0.126465,0.640381
16:44:33,0.755615,-0.076416,0.709961
16:44:33,0.811523,-0.034912,0.800293
16:44:33,0.736328,-0.023682,0.845459
16:44:33,0.497559,0.01001,0.734863
16:44:33,0.683838,0.169189,0.692139
16:44:33,0.983398,0.435791,1.133545
16:44:33,0.424316,0.687744,1.962891
16:44:33,0.126465,1.407715,1.657959
16:44:33,1.39502,2.487305,0.095215
16:44:33,2.530029,2.605469,0.535889
16:44:33,2.491699,2.299072,0.549805
16:44:33,1.918213,2.129883,-0.000732
16:44:33,2.052246,2.342529,-0.130371
16:44:33,4.483398,2.465332,1.462646
16:44:33,7.925293,4.076904,3.132813
16:44:33,2.605469,1.513672,-0.189453
16:44:33,0.916016,0.739746,-0.633789
16:44:33,1.20874,0.372559,0.361816
16:44:33,1.615967,0.245361,1.132568
16:44:33,1.428955,0.046631,1.463379
16:44:33,0.934326,-0.028076,1.260742
16:44:33,0.54541,-0.032715,0.87207
16:44:33,0.414795,-0.039795,0.529785
16:44:33,0.376953,0.009033,0.576904
16:44:33,0.383545,0.040527,0.643555
16:44:33,0.354736,0.087402,0.52124
16:44:33,0.491699,0.321777,0.452393
16:44:33,0.867676,0.742432,0.408447
16:44:33,1.044922,1.082275,0.17334
16:44:33,1.098145,1.295898,-0.017578
16:44:33,1.338135,1.386475,0.1521
16:44:33,1.52124,1.153076,0.522705
16:44:33,1.650635,0.822266,0.867188
16:44:33,1.87793,0.68042,1.045166
16:44:33,2.109131,0.5896,0.859375
16:44:33,2.427002,0.600098,0.664551
16:44:33,2.989014,0.590088,0.86377
16:44:33,4.564697,-0.30249,0.497559
16:44:33,5.537842,-1.842041,-1.855469
16:44:33,2.46582,-1.226074,-5.63623
16:44:33,1.593262,-1.33667,-6.445557
16:44:33,1.593994,-0.137695,-5.241699
16:44:33,-0.053223,0.240479,-3.833984
16:44:33,-0.359619,0.222168,-3.291748
16:44:33,0.008545,0.428223,-3.609131
16:44:33,0.888428,0.730469,-4.103027
16:44:33,-0.371826,0.268555,-4.581299
16:44:33,1.268311,-0.311279,-1.778076
16:44:33,4.287354,-1.190186,1.035156
16:44:33,2.750732,-0.52124,1.012939
16:44:33,1.760498,-0.582764,2.064209
16:44:33,1.276367,-0.635986,2.343506
16:44:33,0.755859,-0.496094,1.665527
16:44:33,0.701416,-0.435791,1.44751
16:44:33,0.314941,-0.29126,0.925537
16:44:33,1.611328,0.23999,1.128662
16:44:33,2.974365,1.369385,0.733398
16:44:33,1.351318,1.90332,-1.52124
16:44:33,0.782715,1.867676,-2.106201
16:44:33,2.507568,0.703369,-0.312988
16:44:33,2.3479,-0.723877,0.039551
16:44:33,1.132568,-0.645508,-0.594482
16:44:33,1.013184,-0.551514,-0.00708
16:44:33,0.974121,-0.531738,0.606445
16:44:33,0.781738,-0.486084,0.958252
16:44:33,0.51123,-0.45874,0.836182
16:44:33,0.30127,-0.425049,0.699463
16:44:33,0.314453,-0.379883,0.749512
16:44:33,0.344238,-0.323242,0.788818
16:44:33,0.329346,-0.199463,0.67334
16:44:33,0.363525,-0.114014,0.638916
16:44:33,0.436523,-0.021973,0.656982
16:44:33,0.826416,0.17041,0.656982
16:44:34,0.985107,0.446289,0.334717
16:44:34,1.26001,1.172119,0.088867
16:44:34,0.869141,1.391602,-0.32959
16:44:34,0.737793,1.192383,-0.158691
16:44:34,0.750977,0.691162,0.42041
16:44:34,0.623779,0.289551,0.758545
16:44:34,0.509033,0.11084,0.774414
16:44:34,0.418213,0.079834,0.630615
16:44:34,0.482666,0.048828,0.674561
16:44:34,0.53418,0.069824,0.612061
16:44:34,0.73584,0.130615,0.520508
16:44:34,1.156494,0.085205,0.405273
16:44:34,1.334473,-0.010986,0.168457
16:44:34,1.233887,-0.092041,0.158936
16:44:34,0.968506,-0.144287,0.393066
16:44:34,0.699951,-0.180908,0.689453
16:44:34,0.601318,-0.211182,0.927734
16:44:34,0.527832,-0.201172,0.946777
16:44:34,0.553467,-0.173096,0.916504
16:44:34,0.697998,-0.125488,0.902344
16:44:34,0.766846,-0.062744,0.8396
16:44:34,0.649658,0.013184,0.719238
16:44:34,0.642578,-0.018311,0.731934
16:44:34,0.914063,0.054932,0.981201
16:44:34,0.974854,0.605225,1.545166
16:44:34,0.722412,1.115234,1.857422
16:44:34,1.167725,2.257568,0.630615
16:44:34,2.314697,2.549561,0.328613
16:44:34,2.485352,2.405029,0.739502
16:44:34,2.301514,2.596436,0.111816
16:44:34,1.656494,2.630859,-0.540527
16:44:34,3.80835,2.450684,1.040039
16:44:34,7.159424,3.770996,3.122314
16:44:34,3.159912,1.593018,0.757813
16:44:34,0.275146,0.224365,-0.572998
16:44:34,0.275391,0.005859,0.01416
16:44:34,1.37915,0.103271,1.015625
16:44:34,1.869629,0.079102,1.970215
16:44:34,1.135742,-0.029785,1.700439
16:44:34,0.405518,0.002197,0.814453
16:44:34,0.316162,0.118408,0.470215
16:44:34,0.428711,0.215332,0.627686
16:44:34,0.510986,0.380615,0.688965
16:44:34,0.516846,0.547119,0.466064
16:44:34,0.548096,0.651611,0.354248
16:44:34,0.750488,0.769775,0.432617
16:44:34,0.977295,0.835938,0.449951
16:44:34,1.116943,0.859375,0.382324
16:44:34,1.164551,0.842529,0.283936
16:44:34,1.168457,0.726563,0.205811
16:44:34,1.292725,0.604492,0.310059
16:44:34,1.599609,0.540283,0.509033
16:44:34,2.035889,0.549561,0.563232
16:44:34,2.062988,0.504883,0.557861
16:44:34,2.982422,0.739014,0.824707
16:44:34,3.881348,0.450684,0.628906
16:44:34,4.749512,-0.974609,-0.737305
16:44:34,3.983154,-0.981934,-3.612793
16:44:34,2.20166,-1.52002,-5.682373
16:44:34,1.6604,-1.003174,-5.448486
16:44:34,0.540283,-0.081787,-4.030273
16:44:34,-0.338135,0.119141,-3.14502
16:44:34,-0.273682,0.312744,-3.073975
16:44:34,0.703125,0.474365,-3.57251
16:44:34,0.393799,0.50293,-4.338135
16:44:34,-0.987061,0.423828,-3.993164
16:44:34,1.554932,-0.770508,-0.809326
16:44:34,4.231201,-1.448242,1.098389
16:44:34,3.419434,-0.965576,1.808105
16:44:34,1.716553,-0.617432,2.177979
16:44:34,0.638184,-0.448975,1.166992
16:44:34,0.915283,-0.459961,1.238037
16:44:34,2.785156,-0.712646,2.293213
16:44:34,2.817383,-0.486084,0.85083
16:44:34,1.062988,-0.04248,-1.377686
16:44:34,1.822266,0.21582,-1.198242
16:44:34,2.740479,0.743896,-0.336426
16:44:34,1.220215,0.969971,-0.284424
16:44:34,0.283936,0.57251,0.056885
16:44:34,0.73877,0.278809,1.10083
16:44:34,0.587158,0.094482,1.301758
16:44:34,0.269775,0.09375,0.723633
16:44:34,0.202881,0.131592,0.598389
16:44:34,0.301758,0.192383,0.837646
16:44:34,0.327881,0.250977,0.82666
16:44:34,0.286621,0.312012,0.645996
16:44:34,0.687744,0.8125,0.645752
16:44:34,0.805176,1.099365,0.306396
16:44:34,0.651611,1.03125,-0.008301
16:44:34,0.736816,0.800537,0.269287
16:44:34,0.701416,0.462402,0.528809
16:44:34,0.604492,0.20752,0.594971
16:44:34,0.60083,0.135742,0.597656
16:44:34,0.669434,0.19458,0.608154
16:44:34,0.748779,0.342041,0.489502
16:44:34,0.834229,0.5625,0.281738
16:44:34,0.880615,0.615967,0.208252
16:44:34,0.870117,0.466553,0.311768
16:44:34,0.805664,0.285645,0.412109
16:44:34,0.73291,0.158936,0.47168
16:44:35,0.710449,0.091309,0.572998
16:44:35,0.720459,0.06665,0.615723
16:44:35,0.739014,0.090088,0.511475
16:44:35,0.842773,0.161377,0.413086
16:44:35,0.992432,0.171387,0.377441
16:44:35,1.011475,0.03125,0.351563
16:44:35,0.983154,-0.074219,0.446777
16:44:35,0.872314,-0.102295,0.524414
16:44:35,0.749512,-0.113525,0.622559
16:44:35,0.689453,-0.126953,0.743408
16:44:35,0.794922,-0.122559,0.815674
16:44:35,0.8396,-0.088623,0.758545
16:44:35,0.716064,-0.029541,0.686279
16:44:35,0.716797,-0.019531,0.704834
16:44:35,0.855225,0.247803,0.540039
16:44:35,0.820557,0.342285,0.78125
16:44:35,0.630615,0.438721,1.680908
16:44:35,-0.063721,0.922363,2.13208
16:44:35,0.561279,2.176025,0.216553
16:44:35,1.716553,2.589111,0.031006
16:44:35,2.261475,2.146973,0.58252
16:44:35,2.419678,2.099365,0.706787
16:44:35,2.35791,2.468506,0.150879
16:44:35,1.685059,1.421387,-0.701416
16:44:35,6.309082,4.049072,2.506592
16:44:35,7.193848,3.544434,2.016602
16:44:35,2.330322,0.676025,-1.979248
16:44:35,0.572021,0.246826,-1.83667
16:44:35,1.207764,0.090576,0.116455
16:44:35,1.248779,-0.023682,0.898438
16:44:35,0.843994,-0.185547,1.047852
16:44:35,0.391113,-0.134766,0.801514
16:44:35,0.24585,-0.050537,0.433838
16:44:35,0.192627,-0.030518,0.264404
16:44:35,-0.072998,-0.047607,0.481445
16:44:35,-0.599609,0.011963,0.749756
16:44:35,-0.723145,0.162109,0.636475
16:44:35,-0.174805,0.346924,0.438965
16:44:35,0.591309,0.863281,0.643555
16:44:35,1.762451,2.11377,0.49292
16:44:35,1.370605,2.003174,-0.413818
16:44:35,1.140625,1.671387,-0.562012
16:44:35,1.544434,1.3396,0.221436
16:44:35,1.641113,0.88623,0.692871
16:44:35,1.787109,0.668457,0.921875
16:44:35,1.907471,0.689453,0.930664
16:44:35,3.314697,0.618408,1.065186
16:44:35,5.03833,0.621094,-0.142334
16:44:35,1.542725,0.04248,-1.179932
16:44:35,1.150635,0.314697,-0.841309
16:44:35,5.442871,-1.51416,-0.248291
16:44:35,2.494873,-0.7229,-4.971191
16:44:35,0.923828,-1.02417,-8
16:44:35,1.876953,-1.218018,-6.489502
16:44:35,0.373535,0.044189,-4.351807
16:44:35,-0.376953,0.491455,-2.694092
16:44:35,-0.947021,0.718262,-3.447266
16:44:35,-2.000977,0.947998,-4.26001
16:44:35,2.331055,0.68335,-0.116211
16:44:35,6.084473,-0.320068,2.473389
16:44:35,2.532227,-1.109619,0.781738
16:44:35,1.462402,-0.883301,1.462646
16:44:35,1.296143,-1.015625,1.601074
16:44:35,1.840576,-1.300049,1.716553
16:44:35,2.594971,-1.747314,1.607666
16:44:35,1.136475,-0.679932,-0.495605
16:44:35,1.313477,-0.614258,-0.583984
16:44:35,2.20166,-0.287842,-0.178711
16:44:35,1.702881,0.366699,-0.255615
16:44:35,1.772461,1.120117,-0.330566
16:44:35,1.145752,1.075439,-0.430176
16:44:35,0.776611,0.517334,0.032471
16:44:35,0.906982,0.190674,0.667969
16:44:35,0.742676,0.034912,0.893311
16:44:35,0.463379,-0.036133,0.77417
16:44:35,0.388428,-0.075684,0.752197
16:44:35,0.391357,-0.069336,0.812744
16:44:35,0.383545,-0.063477,0.757568
16:44:35,0.340576,-0.000977,0.731689
16:44:35,0.369873,0.114502,0.735596
16:44:35,0.450928,0.238281,0.697998
16:44:35,0.947754,0.825439,0.588623
16:44:35,0.954346,1.183594,0.091553
16:44:35,0.718994,1.006592,-0.116211
16:44:35,0.834473,0.657715,0.372803
16:44:35,0.744385,0.288818,0.698242
16:44:35,0.544189,0.078125,0.664307
16:44:35,0.514404,-0.00708,0.651611
16:44:35,0.581299,-0.024902,0.640137
16:44:35,0.723389,-0.006836,0.597656
16:44:35,0.874756,0.021729,0.506348
16:44:35,0.994629,0.04248,0.439209
16:44:35,0.97998,0.094238,0.317383
16:44:35,0.984863,0.12915,0.226074
16:44:35,1.0625,0.099854,0.325195
16:44:35,0.941406,0.038818,0.487549
16:44:35,0.751221,0.012695,0.543457
16:44:35,0.716553,-0.000244,0.676514
16:44:35,0.687744,0,0.703125
16:44:35,0.670654,0.012451,0.671387
16:44:36,0.713867,0.064209,0.716797
16:44:36,0.730225,0.203613,0.685791
16:44:36,0.767822,0.227783,0.733398
16:44:36,0.711426,0.17334,0.80835
16:44:36,0.758545,0.139893,0.765625
16:44:36,0.476074,-0.052002,0.751709
16:44:36,0.829834,0.000977,1.235596
16:44:36,1.077393,0.411377,1.740234
16:44:36,0.892822,1.302979,1.516113
16:44:36,1.2854,1.985352,0.790527
16:44:36,2.650879,2.554199,0.870361
16:44:36,2.875977,2.704102,0.809814
16:44:36,1.84668,2.726807,-0.333252
16:44:36,1.65625,2.01709,-0.426758
16:44:36,5.463379,2.92749,2.254639
16:44:36,6.484131,3.307617,2.783447
16:44:36,1.268799,0.477783,-0.150635
16:44:36,0.115479,0.12085,-0.447998
16:44:36,0.896729,0.253662,0.544434
16:44:36,1.730713,0.47168,1.352783
16:44:36,1.435059,0.251221,1.643066
16:44:36,0.612549,0.032471,1.17627
16:44:36,0.396729,0.143311,0.777588
16:44:36,0.526855,0.368164,0.700684
16:44:36,0.524902,0.53418,0.620117
16:44:36,0.432861,0.597412,0.44751
16:44:36,0.422119,0.609863,0.500732
16:44:36,0.479736,0.669678,0.546631
16:44:36,0.576904,0.684814,0.501221
16:44:36,0.745361,0.709473,0.523926
16:44:36,0.965576,0.779053,0.57373
16:44:36,1.174072,0.861816,0.5625
16:44:36,1.416504,0.901855,0.582764
16:44:36,1.618408,0.841309,0.629639
16:44:36,1.779541,0.707275,0.594482
16:44:36,1.769531,0.491943,0.399658
16:44:36,1.896729,0.547852,0.378662
16:44:36,3.388916,0.034668,1.221924
16:44:36,5.355225,-1.423584,0.338135
16:44:36,4.527832,-1.604736,-2.782959
16:44:36,2.460205,-1.414551,-5.564697
16:44:36,1.720703,-0.427246,-6.099609
16:44:36,0.838135,0.820068,-4.583496
16:44:36,-0.135498,0.358154,-3.148682
16:44:36,-0.027344,-0.102051,-2.937012
16:44:36,-0.378662,0.019531,-3.541504
16:44:36,-1.207031,0.247803,-4.765625
16:44:36,0.19458,-0.486816,-4.391846
16:44:36,3.57373,-1.777344,-0.726563
16:44:36,5.10498,-2.101807,1.338135
16:44:36,2.599609,-0.310547,0.950195
16:44:36,1.877686,-0.191895,1.88623
16:44:36,1.563721,-0.062988,1.570801
16:44:36,1.175537,0.326416,0.845703
16:44:36,1.668457,0.482422,1.019531
16:44:36,1.721191,0.894531,0.379883
16:44:36,1.447998,1.453125,-0.700439
16:44:36,1.487549,1.313232,-0.769287
16:44:36,1.581055,0.571533,-0.227051
16:44:36,1.507813,-0.08252,0.189453
16:44:36,1.216797,-0.525391,0.264893
16:44:36,0.99707,-0.594482,0.16626
16:44:36,0.968506,-0.564209,0.343506
16:44:36,0.882324,-0.574707,0.654541
16:44:36,0.684326,-0.580322,0.75293
16:44:36,0.512695,-0.527344,0.715576
16:44:36,0.469971,-0.424561,0.70459
16:44:36,0.484375,-0.327637,0.694092
16:44:36,0.512207,-0.228516,0.641113
16:44:36,0.635986,-0.078369,0.597412
16:44:36,0.771973,0.085693,0.507324
16:44:36,1.165771,0.615723,0.346436
16:44:36,1.333984,1.236328,-0.017822
16:44:36,0.844482,1.190674,-0.351074
16:44:36,0.758789,0.830078,0.012695
16:44:36,0.839844,0.394775,0.626709
16:44:36,0.646484,0.067871,0.824219
16:44:36,0.502686,0.012939,0.696289
16:44:36,0.456055,0.037109,0.585938
16:44:36,0.566895,0.092529,0.643555
16:44:36,0.668213,0.202148,0.593506
16:44:36,0.844482,0.414795,0.444092
16:44:36,0.89209,0.534668,0.239502
16:44:36,0.875,0.483643,0.187744
16:44:36,0.968018,0.30835,0.351318
16:44:36,0.897949,0.129395,0.431885
16:44:36,0.860352,-0.010742,0.445801
16:44:36,0.873779,-0.10791,0.51416
16:44:36,0.865967,-0.171387,0.577393
16:44:36,0.838135,-0.243164,0.643311
16:44:36,0.805176,-0.229004,0.664307
16:44:36,0.792725,-0.22583,0.704102
16:44:36,0.755615,-0.18042,0.723389
16:44:36,0.597656,-0.140137,0.76001
16:44:36,0.726807,-0.088135,0.876709
16:44:36,0.913818,-0.033447,0.925293
16:44:36,0.55957,-0.053223,0.687744
16:44:36,0.373047,-0.108154,0.614746
16:44:36,0.962891,0.223877,1.118652
