Time,Accel-X (g), Accel-Y (g), Accel-Z (g)
17:39:55,0.181396,0.006348,1.081787
17:39:55,0.083496,0.202881,0.772461
17:39:55,0.358643,0.283691,0.549072
17:39:55,0.703857,0.016113,0.697754
17:39:55,0.838135,-0.227295,0.664063
17:39:55,-1.599854,0.246338,1.69165
17:39:55,-0.516357,-0.306641,1.365723
17:39:55,1.610352,-0.559326,1.01123
17:39:55,1.734863,-0.125244,1.695068
17:39:55,1.611572,-0.265869,1.470459
17:39:55,1.929443,-1.041504,1.402588
17:39:55,1.977539,-1.561523,1.69458
17:39:55,1.666016,-1.327393,2.061035
17:39:55,1.462891,-0.345947,1.499756
17:39:55,2.263184,0.851318,0.701904
17:39:55,4.351074,0.524902,2.581055
17:39:55,4.14209,-0.75293,2.119141
17:39:55,1.790283,-0.809814,0.193848
17:39:55,0.992432,-0.518555,0.811035
17:39:55,0.193848,0.128174,0.716553
17:39:55,-0.546631,0.432617,0.172119
17:39:55,-0.799805,0.519775,0.362549
17:39:55,-0.774902,0.579834,0.902588
17:39:55,-0.612793,0.503174,0.951416
17:39:55,-0.026367,0.231201,0.828125
17:39:55,0.595703,-0.233154,0.966064
17:39:55,0.919434,-0.786621,0.924316
17:39:55,0.956787,-1.171875,0.69751
17:39:55,0.79541,-1.239014,0.629883
17:39:55,0.481445,-0.997559,0.732178
17:39:55,0.227783,-0.637695,0.747314
17:39:55,0.201416,-0.438232,0.697998
17:39:55,0.376709,-0.544189,0.680176
17:39:55,0.564941,-0.805908,0.699707
17:39:55,0.666992,-1.050293,0.759521
17:39:55,0.6604,-1.175293,0.796387
17:39:55,0.628174,-1.152832,0.804932
17:39:55,0.631592,-1.057373,0.788086
17:39:55,0.598877,-1.019531,0.694092
17:39:55,0.533691,-1.087891,0.560059
17:39:55,0.486816,-1.145752,0.4729
17:39:55,0.52417,-1.043457,0.496826
17:39:55,0.749023,-0.904297,0.724365
17:39:55,1.098145,-1.033203,1.118164
17:39:55,1.36377,-1.372803,1.394531
17:39:55,1.50415,-1.562744,1.424316
17:39:55,1.706055,-1.512207,1.35376
17:39:55,1.878174,-1.422852,1.17749
17:39:55,1.990479,-1.419189,1.057129
17:39:55,2.029785,-1.395508,0.87793
17:39:55,2.101318,-1.317139,0.626465
17:39:55,2.108398,-1.257568,0.32666
17:39:55,2.076416,-1.166992,0.034668
17:39:55,2.032471,-1.035889,-0.211426
17:39:55,1.989258,-0.830322,-0.468994
17:39:55,1.932129,-0.653564,-0.834473
17:39:55,1.86377,-0.624023,-1.333496
17:39:55,1.739746,-0.73999,-2.038818
17:39:55,1.660645,-1.047852,-2.990234
17:39:55,1.830078,-1.123535,-4.268311
17:39:55,2.14624,-0.783447,-4.917969
17:39:55,2.335449,-0.508789,-3.397217
17:39:55,1.579834,0.059326,-0.177002
17:39:55,1.21875,0.794189,1.506592
17:39:55,0.301514,-1.269531,4.316895
17:39:55,-1.295654,-2.182861,2.705322
17:39:55,-5.936768,-1.030518,-5.065918
17:39:55,-7.777588,0.151855,-0.339844
17:39:55,-1.840576,1.008789,5.378662
17:39:55,1.859375,1.297852,-0.134277
17:39:55,3.689697,2.452881,-0.537598
17:39:55,6.705566,2.497803,-0.374023
17:39:55,4.426758,-0.676514,-3.04541
17:39:55,3.521973,-5.13623,-1.376709
17:39:55,2.627197,-7.439941,0.218262
17:39:55,-0.062256,-2.804199,-0.858398
17:39:55,0.060303,-1.106445,0.355469
17:39:55,0.124756,-0.106689,1.007568
17:39:55,-0.186768,0.719238,0.62915
17:39:55,-0.34082,1.21875,0.09375
17:39:55,-0.346191,1.487305,0.482178
17:39:55,-0.390137,1.230225,0.876465
17:39:55,-0.294434,0.599365,0.834229
17:39:55,0.011475,0.051025,0.678223
17:39:55,0.481934,-0.461426,0.717529
17:39:55,0.908691,-1.079346,0.847168
17:39:55,1.102295,-1.485352,0.720215
17:39:55,1.001953,-1.420166,0.531982
17:39:55,0.70752,-0.94873,0.633545
17:39:55,0.456299,-0.378174,0.841309
17:39:55,0.270508,0.070801,0.810547
17:39:55,0.186279,0.313965,0.665283
17:39:55,0.296143,0.290527,0.643066
17:39:55,0.506104,-0.000977,0.699951
17:39:55,0.641846,-0.39502,0.730225
17:39:55,0.671631,-0.70874,0.740234
17:39:55,0.64502,-0.805176,0.770508
17:39:55,0.564697,-0.61499,0.774902
17:39:55,0.490967,-0.304443,0.734131
17:39:55,0.471191,-0.107666,0.706787
17:39:56,0.473389,-0.098389,0.704834
17:39:56,0.517578,-0.244141,0.724609
17:39:56,0.556885,-0.422363,0.740723
17:39:56,0.569336,-0.520752,0.752686
17:39:56,0.574707,-0.460938,0.747314
17:39:56,0.537842,-0.327637,0.72998
17:39:56,0.514404,-0.23584,0.717041
17:39:56,0.531982,-0.241211,0.718506
17:39:56,0.532959,-0.337158,0.720459
17:39:56,0.562988,-0.408203,0.750488
17:39:56,0.5625,-0.422363,0.75
17:39:56,0.562988,-0.36499,0.735107
17:39:56,0.549072,-0.302734,0.735352
17:39:56,0.53125,-0.277832,0.718994
17:39:56,0.543945,-0.317139,0.731445
17:39:56,0.545166,-0.354736,0.734619
17:39:56,0.558838,-0.362549,0.734375
17:39:56,0.563232,-0.349854,0.734375
17:39:56,0.560059,-0.333984,0.736572
17:39:56,0.572754,-0.316406,0.723877
17:39:56,0.583984,-0.306396,0.715088
17:39:56,0.559326,-0.331055,0.730225
17:39:56,0.545654,-0.344727,0.724854
17:39:56,0.53833,-0.354004,0.725098
17:39:56,0.529053,-0.357422,0.74585
17:39:56,0.540039,-0.320068,0.689209
17:39:56,0.489746,-0.336182,0.678467
17:39:56,0.475098,-0.376465,0.744141
17:39:56,0.527588,-0.367676,0.738525
17:39:56,0.513672,-0.360352,0.755127
17:39:56,0.543945,-0.29248,0.772949
17:39:56,0.480469,-0.251465,0.813965
17:39:56,0.469238,-0.227539,0.861084
17:39:56,0.080811,0.082275,1.05249
17:39:56,-1.153564,0.841309,1.394531
17:39:56,-0.128662,-0.061523,0.47583
17:39:56,0.660889,-0.408447,0.64502
17:39:56,-0.115234,-0.063232,1.410889
17:39:56,0.116943,-0.426758,0.780273
17:39:56,1.273682,-0.974854,1.243164
17:39:56,0.831787,-0.212891,1.511475
17:39:56,2.092285,-0.340088,1.605225
17:39:56,2.036865,-0.589111,1.6521
17:39:56,1.160645,-0.926025,1.066162
17:39:56,1.240479,-1.196777,1.477051
17:39:56,1.645752,-1.04248,2.070801
17:39:56,0.913818,-0.652588,1.727051
17:39:56,1.312744,0.119629,0.435303
17:39:56,4.73584,-0.625244,2.716064
17:39:56,4.853516,-1.580811,2.355469
17:39:56,2.599365,-1.501221,0.307617
17:39:56,1.490723,-0.928467,0.637451
17:39:56,0.553467,-0.162598,0.797119
17:39:56,-0.456543,0.402344,-0.028564
17:39:56,-0.932129,0.740967,-0.096191
17:39:56,-0.938965,1.108398,0.592285
17:39:56,-0.724365,1.29834,0.907471
17:39:56,-0.312256,1.114014,0.771484
17:39:56,0.343994,0.583984,0.832275
17:39:56,0.851074,-0.020264,0.978516
17:39:56,1.072998,-0.725342,0.919922
17:39:56,1.109375,-1.411133,0.803467
17:39:56,0.952881,-1.60791,0.651611
17:39:56,0.689209,-1.275635,0.599121
17:39:56,0.414795,-0.766846,0.70874
17:39:56,0.291504,-0.40625,0.667969
17:39:56,0.365967,-0.282471,0.641602
17:39:56,0.573975,-0.49292,0.717041
17:39:56,0.723633,-0.890381,0.77832
17:39:56,0.82251,-1.189697,0.782471
17:39:56,0.82251,-1.330078,0.774414
17:39:56,0.759277,-1.240967,0.714111
17:39:56,0.641846,-1.080078,0.582275
17:39:56,0.525146,-0.998535,0.466309
17:39:56,0.510254,-0.950684,0.428955
17:39:56,0.696533,-0.880371,0.560547
17:39:56,0.98999,-1.000244,0.942139
17:39:56,1.310547,-1.351074,1.384766
17:39:56,1.69458,-1.564209,1.626221
17:39:56,2.091553,-1.501465,1.560303
17:39:56,2.390625,-1.393311,1.323486
17:39:56,2.496094,-1.363037,1.008057
17:39:56,2.445313,-1.346191,0.625
17:39:56,2.400391,-1.311768,0.249268
17:39:56,2.322021,-1.299316,-0.080566
17:39:56,2.14917,-1.25415,-0.471436
17:39:56,2.049805,-1.038574,-0.89502
17:39:56,1.999268,-0.701416,-1.24707
17:39:56,1.867432,-0.484619,-1.805176
17:39:56,1.851074,-0.637695,-2.473633
17:39:56,2.066406,-1.130371,-3.270508
17:39:56,1.967773,-1.341553,-4.603516
17:39:56,1.862793,-1.090088,-4.777344
17:39:56,1.625244,-0.225586,-1.320557
17:39:56,1.155029,0.455566,-0.079834
17:39:56,0.401611,0.118164,2.394043
17:39:56,-1.381104,-0.466309,0.396973
17:39:56,-6.163086,-0.558838,-3.862549
17:39:56,-6.317871,-0.106201,3.948486
17:39:56,-0.627686,0.293213,3.370605
17:39:57,2.272949,1.550293,2.484863
17:39:57,5.390137,2.480713,0.942139
17:39:57,4.842773,1.585449,-2.695557
17:39:57,5.947266,-5.146484,-3.354736
17:39:57,4.550049,-6.930664,-0.864502
17:39:57,1.651855,-3.788818,-0.209961
17:39:57,0.208984,-1.309082,-0.058838
17:39:57,-0.167969,-0.152832,0.398193
17:39:57,-0.38208,0.516357,0.604004
17:39:57,-0.630859,0.885986,0.634277
17:39:57,-0.831543,1.150391,0.724365
17:39:57,-0.776123,1.255127,0.899414
17:39:57,-0.375244,0.855469,0.798584
17:39:57,0.10083,0.242676,0.631348
17:39:57,0.531494,-0.214111,0.594727
17:39:57,0.950928,-0.789063,0.663818
17:39:57,1.192871,-1.327637,0.739014
17:39:57,1.052979,-1.430176,0.668213
17:39:57,0.698975,-1.187012,0.675293
17:39:57,0.508789,-0.502197,0.80835
17:39:57,0.339111,-0.048096,0.837402
17:39:57,0.244141,0.224609,0.713379
17:39:57,0.328857,0.296387,0.603516
17:39:57,0.537354,0.15918,0.648926
17:39:57,0.561523,-0.195801,0.935791
17:39:57,0.637695,-0.601318,0.821045
17:39:57,0.634033,-0.761963,0.75
17:39:57,0.530518,-0.727295,0.807373
17:39:57,0.488525,-0.432129,0.79541
17:39:57,0.470703,-0.166748,0.718506
17:39:57,0.463867,-0.048584,0.683594
17:39:57,0.487549,-0.135498,0.703369
17:39:57,0.521729,-0.342041,0.753906
17:39:57,0.541504,-0.490723,0.77124
17:39:57,0.560303,-0.498291,0.757813
17:39:57,0.556641,-0.374756,0.739014
17:39:57,0.540527,-0.250732,0.734863
17:39:57,0.508545,-0.223145,0.72168
17:39:57,0.507813,-0.285156,0.732422
17:39:57,0.548096,-0.360107,0.757568
17:39:57,0.573486,-0.384766,0.736328
17:39:57,0.581787,-0.365479,0.712646
17:39:57,0.574951,-0.329102,0.724365
17:39:57,0.549805,-0.301514,0.736572
17:39:57,0.524658,-0.297119,0.734375
17:39:57,0.539063,-0.32251,0.734375
17:39:57,0.56665,-0.348389,0.734375
17:39:57,0.5625,-0.341064,0.734375
17:39:57,0.5625,-0.323975,0.734375
17:39:57,0.5625,-0.311035,0.734375
17:39:57,0.5625,-0.311035,0.734375
17:39:57,0.561768,-0.296875,0.734131
17:39:57,0.546143,-0.312744,0.734375
17:39:57,0.500977,-0.342529,0.749512
17:39:57,0.499756,-0.360107,0.749023
17:39:57,0.5,-0.333496,0.77124
17:39:57,0.501465,-0.295654,0.681152
17:39:57,0.481445,-0.331543,0.693848
17:39:57,0.525146,-0.368164,0.712402
17:39:57,0.502686,-0.396729,0.730225
17:39:57,0.543701,-0.359375,0.81543
17:39:57,0.509521,-0.268066,0.864502
17:39:57,0.410156,-0.204346,0.894287
17:39:57,0.501465,-0.214111,0.929443
17:39:57,-0.43042,0.547119,1.352539
17:39:57,-1.012695,0.709229,1.050781
17:39:57,0.098877,-0.189453,0.287109
17:39:57,0.23584,-0.299072,0.936035
17:39:57,-0.109131,-0.246826,1.205811
17:39:57,0.918213,-0.687012,0.903076
17:39:57,1.208984,-0.379395,1.42041
17:39:57,1.225098,0.071777,1.299561
17:39:57,2.071289,-0.322266,1.460449
17:39:57,1.65332,-0.983398,1.498291
17:39:57,1.137695,-1.256592,0.942871
17:39:57,1.738281,-1.301514,1.873291
17:39:57,1.983643,-0.811279,2.264648
17:39:57,1.695801,0.178467,1.017578
17:39:57,3.217041,0.463135,1.132813
17:39:57,5.294922,-0.949951,3.579346
17:39:57,2.926025,-1.558594,1.083008
17:39:57,1.390381,-1.287598,0.266846
17:39:57,0.930908,-0.711182,0.959717
17:39:57,0.019531,0.014404,0.474121
17:39:57,-0.65918,0.405762,-0.141113
17:39:57,-0.738525,0.738525,0.330322
17:39:57,-0.671875,0.950684,0.7771
17:39:57,-0.613037,0.892578,0.849365
17:39:57,-0.080566,0.633301,0.852295
17:39:57,0.480225,0.193359,0.968262
17:39:57,0.77417,-0.412598,0.937744
17:39:57,0.937012,-1.126709,0.86792
17:39:57,0.89624,-1.645996,0.731445
17:39:57,0.674316,-1.635986,0.564697
17:39:57,0.447266,-1.215088,0.625
17:39:57,0.284912,-0.721924,0.728271
17:39:57,0.3125,-0.381348,0.715332
17:39:57,0.558838,-0.374268,0.742188
17:39:57,0.754395,-0.698975,0.761475
17:39:57,0.781006,-1.062256,0.726563
17:39:58,0.754639,-1.239258,0.707275
17:39:58,0.696289,-1.209961,0.681152
17:39:58,0.634521,-1.043945,0.661377
17:39:58,0.601563,-0.939697,0.600586
17:39:58,0.643066,-0.922607,0.531738
17:39:58,0.795654,-0.981934,0.601074
17:39:58,1.052979,-1.072998,0.929688
17:39:58,1.343018,-1.264648,1.320313
17:39:58,1.669434,-1.463867,1.605713
17:39:58,1.975586,-1.483643,1.543945
17:39:58,2.27002,-1.408447,1.354492
17:39:58,2.446289,-1.391113,1.114258
17:39:58,2.415527,-1.391602,0.739258
17:39:58,2.372314,-1.384521,0.351807
17:39:58,2.29834,-1.311035,-0.031006
17:39:58,2.25708,-1.303711,-0.458496
17:39:58,2.157959,-1.19165,-0.912354
17:39:58,1.990723,-0.905518,-1.207275
17:39:58,1.922852,-0.574463,-1.847412
17:39:58,1.951904,-0.645996,-2.629639
17:39:58,2.167725,-1.17334,-3.529053
17:39:58,1.884766,-1.409668,-5.240723
17:39:58,2.166748,-1.115967,-4.696533
17:39:58,2.16333,-0.334717,-2.225586
17:39:58,1.609375,0.783936,0.431885
17:39:58,0.76416,0.261963,3.085693
17:39:58,-1.479248,-0.941162,0.904297
17:39:58,-5.960205,-0.642334,-4.182617
17:39:58,-6.046387,-0.202881,0.24707
17:39:58,0.392578,0.38208,6.413574
17:39:58,3.039307,1.608398,1.83252
17:39:58,6.388916,2.163086,1.217773
17:39:58,4.258545,-0.265869,-2.159668
17:39:58,3.560791,-2.517578,-5.053711
17:39:58,7.5625,-7.223145,-0.750244
17:39:58,1.400879,-2.669189,0.296631
17:39:58,0.210449,-0.744629,0.040527
17:39:58,-0.29541,0.139404,0.128662
17:39:58,-0.700684,0.66748,0.699707
17:39:58,-0.697998,0.885498,0.72876
17:39:58,-0.458252,0.837646,0.867432
17:39:58,-0.449219,0.583252,0.834717
17:39:58,-0.036621,0.348877,0.845459
17:39:58,0.40625,0.049561,0.692871
17:39:58,0.682373,-0.374023,0.600586
17:39:58,0.925537,-0.910889,0.677246
17:39:58,1.015625,-1.265137,0.710693
17:39:58,0.8396,-1.138672,0.683105
17:39:58,0.60498,-0.649658,0.72168
17:39:58,0.435547,-0.202148,0.783691
17:39:58,0.324707,0.084717,0.757324
17:39:58,0.356689,0.198975,0.675781
17:39:58,0.525635,0.055908,0.654297
17:39:58,0.672363,-0.270508,0.679199
17:39:58,0.736328,-0.577881,0.693115
17:39:58,0.724365,-0.707031,0.719238
17:39:58,0.62793,-0.602051,0.734375
17:39:58,0.529053,-0.35376,0.712402
17:39:58,0.476074,-0.148438,0.695068
17:39:58,0.447266,-0.102051,0.689209
17:39:58,0.482178,-0.210205,0.70459
17:39:58,0.550293,-0.370117,0.706055
17:39:58,0.603271,-0.473389,0.720459
17:39:58,0.609131,-0.477295,0.71875
17:39:58,0.589844,-0.375,0.717285
17:39:58,0.561035,-0.274658,0.702393
17:39:58,0.5625,-0.250244,0.703125
17:39:58,0.577393,-0.30957,0.718506
17:39:58,0.592041,-0.370605,0.703857
17:39:58,0.60791,-0.390625,0.70166
17:39:58,0.611084,-0.383057,0.719727
17:39:58,0.596191,-0.323975,0.692871
17:39:58,0.593262,-0.295898,0.686523
17:39:58,0.589355,-0.305908,0.6875
17:39:58,0.614258,-0.32251,0.6875
17:39:58,0.640137,-0.339844,0.689697
17:39:58,0.633545,-0.347168,0.672363
17:39:58,0.615967,-0.336182,0.689941
17:39:58,0.598389,-0.317139,0.708252
17:39:58,0.589844,-0.308594,0.689941
17:39:58,0.60376,-0.316406,0.699707
17:39:58,0.601807,-0.347168,0.73584
17:39:58,0.600342,-0.359863,0.716797
17:39:58,0.606445,-0.328369,0.669434
17:39:58,0.579834,-0.312012,0.695801
17:39:58,0.607178,-0.290039,0.689209
17:39:58,0.609619,-0.281006,0.621582
17:39:58,0.5,-0.364502,0.694092
17:39:58,0.542969,-0.377441,0.74707
17:39:58,0.55835,-0.351318,0.786865
17:39:58,0.503906,-0.289063,0.843994
17:39:58,0.454346,-0.1875,0.827148
17:39:58,0.376953,-0.141602,0.974609
17:39:58,0.301758,-0.008057,1.022705
17:39:58,0.213623,0.210938,0.816895
17:39:58,0.141602,0.233887,0.686768
17:39:58,-0.195068,0.342285,1.041016
17:39:58,-1.468506,0.334229,1.289551
17:39:58,0.615967,-0.623535,0.645264
17:39:58,1.201904,-0.847656,1.625
17:39:59,1.591553,-0.356689,1.450684
17:39:59,1.54834,-0.138672,1.659668
17:39:59,0.892334,-0.102051,0.394531
17:39:59,1.362793,-0.977783,0.668945
17:39:59,2.330566,-2.238525,2.216553
17:39:59,2.716309,-1.713623,3.147949
17:39:59,2.033691,-0.201416,0.9021
17:39:59,3.145264,0.78125,0.807129
17:39:59,4.947998,-0.368896,3.081055
17:39:59,3.300537,-1.387207,1.647461
17:39:59,1.09668,-1.033203,0.115479
17:39:59,0.717529,-0.539551,0.997803
17:39:59,-0.010498,0.019531,0.644531
17:39:59,-0.68335,0.313721,-0.045166
17:39:59,-0.617676,0.653564,0.318604
17:39:59,-0.436035,0.845703,0.914063
17:39:59,-0.38916,0.804443,0.933105
17:39:59,-0.005615,0.551758,0.976074
17:39:59,0.510986,0.131592,1.012207
17:39:59,0.745117,-0.42627,0.942139
17:39:59,0.890381,-1.014648,0.91626
17:39:59,0.967285,-1.508057,0.851318
17:39:59,0.826904,-1.58667,0.626953
17:39:59,0.618164,-1.300293,0.594482
17:39:59,0.442139,-0.88916,0.687012
17:39:59,0.357666,-0.526123,0.614502
17:39:59,0.447021,-0.338623,0.586426
17:39:59,0.59668,-0.497803,0.68335
17:39:59,0.713135,-0.856445,0.756104
17:39:59,0.786133,-1.12793,0.785889
17:39:59,0.813477,-1.25415,0.749756
17:39:59,0.803955,-1.207031,0.717773
17:39:59,0.784912,-1.052002,0.67334
17:39:59,0.763672,-0.927002,0.546631
17:39:59,0.822754,-0.920166,0.535645
17:39:59,0.972656,-1.089844,0.834473
17:39:59,1.206543,-1.393311,1.200928
17:39:59,1.530518,-1.574219,1.385498
17:39:59,1.925537,-1.554932,1.415771
17:39:59,2.261963,-1.437988,1.239014
17:39:59,2.445557,-1.343994,0.905029
17:39:59,2.515625,-1.340576,0.567383
17:39:59,2.476074,-1.339355,0.168945
17:39:59,2.405273,-1.330322,-0.299316
17:39:59,2.410889,-1.289307,-0.796875
17:39:59,2.373047,-1.083984,-1.300293
17:39:59,2.28125,-0.743164,-1.824707
17:39:59,2.301758,-0.508057,-2.468994
17:39:59,2.118652,-0.543457,-3.314941
17:39:59,2.062744,-0.931641,-4.138184
17:39:59,1.835449,-1.013916,-4.940186
17:39:59,1.837646,-0.365479,-3.851807
17:39:59,0.826172,0.110107,-1.553467
17:39:59,0.780273,0.177979,1.598877
17:39:59,-0.824707,-1.005615,1.937744
17:39:59,-4.314209,-0.954102,-3.286865
17:39:59,-7.295898,-0.602295,1.546631
17:39:59,-2.070068,-0.208496,3.283936
17:39:59,2.25293,0.952393,3.720947
17:39:59,5.593018,1.008789,2.886719
17:39:59,4.285889,0.359619,-2.821045
17:39:59,5.959229,-3.959961,-5.672363
17:39:59,5.413086,-5.025391,-1.83252
17:39:59,2.082275,-2.41626,0.915283
17:39:59,0.130127,-0.365234,0.089355
17:39:59,-0.625488,0.418457,-0.121582
17:39:59,-1.112061,0.726074,0.637695
17:39:59,-1.266602,1.009033,1.102295
17:39:59,-0.899902,1.030762,1.072754
17:39:59,-0.263672,0.625488,0.564453
17:39:59,0.441162,-0.009277,0.420654
17:39:59,1.131592,-0.769775,0.681641
17:39:59,1.406494,-1.452148,0.697754
17:39:59,1.188477,-1.605469,0.473145
17:39:59,0.807617,-1.122559,0.510498
17:39:59,0.545166,-0.446533,0.753906
17:39:59,0.225586,0.022949,0.793945
17:39:59,0.098633,0.3125,0.68335
17:39:59,0.236816,0.306152,0.624756
17:39:59,0.543945,-0.040771,0.689697
17:39:59,0.757324,-0.46875,0.671143
17:39:59,0.873047,-0.760498,0.65625
17:39:59,0.883545,-0.82251,0.654785
17:39:59,0.716309,-0.590332,0.684814
17:39:59,0.531494,-0.296387,0.687744
17:39:59,0.388672,-0.108398,0.6875
17:39:59,0.370361,-0.091064,0.6875
17:39:59,0.458984,-0.248291,0.689453
17:39:59,0.58667,-0.44458,0.675781
17:39:59,0.692139,-0.530518,0.670898
17:39:59,0.697021,-0.471191,0.669434
17:39:59,0.638672,-0.348877,0.684082
17:39:59,0.563477,-0.27417,0.677246
17:39:59,0.544678,-0.306641,0.676758
17:39:59,0.574463,-0.373779,0.70166
17:39:59,0.618896,-0.406006,0.689453
17:39:59,0.654053,-0.404541,0.669434
17:39:59,0.661621,-0.376709,0.665039
17:39:59,0.645508,-0.348633,0.652344
17:39:59,0.614746,-0.340088,0.661621
17:40:00,0.605957,-0.348633,0.675049
17:40:00,0.611816,-0.360596,0.667236
17:40:00,0.634033,-0.36377,0.654541
17:40:00,0.663574,-0.374268,0.6521
17:40:00,0.674072,-0.354492,0.641846
17:40:00,0.669189,-0.342041,0.655518
17:40:00,0.656494,-0.34375,0.638916
17:40:00,0.672852,-0.34375,0.641602
17:40:00,0.670654,-0.343506,0.656738
17:40:00,0.640137,-0.34375,0.65625
17:40:00,0.610107,-0.374268,0.687256
17:40:00,0.609131,-0.361328,0.65918
17:40:00,0.609375,-0.344971,0.63916
17:40:00,0.61084,-0.346436,0.676758
17:40:00,0.605469,-0.304932,0.582031
17:40:00,0.514893,-0.40625,0.665771
17:40:00,0.611328,-0.37915,0.659912
17:40:00,0.624756,-0.367188,0.699707
17:40:00,0.616455,-0.30542,0.7229
17:40:00,0.568359,-0.28418,0.704834
17:40:00,0.557129,-0.272217,0.767578
17:40:00,0.498535,-0.115967,0.860596
17:40:00,0.424561,0.060791,0.856201
17:40:00,0.268555,0.265869,0.885498
17:40:00,-1.048096,0.627441,1.226563
17:40:00,-0.931396,-0.114014,0.850098
17:40:00,0.768311,-1.284668,0.822754
17:40:00,0.554932,-0.814453,1.677246
17:40:00,0.744873,-0.149658,1.540039
17:40:00,1.952393,-0.249756,1.477295
17:40:00,1.871582,-0.486084,1.123291
17:40:00,1.27417,-1.120361,1.036377
17:40:00,1.499023,-1.379395,1.24707
17:40:00,1.913818,-0.963379,1.854492
17:40:00,1.565674,-0.543945,1.817139
17:40:00,1.698975,0.061279,0.160889
17:40:00,4.579834,-0.342773,2.490479
17:40:00,5.419922,-2.176025,2.944336
17:40:00,2.980957,-1.866211,-0.02124
17:40:00,1.968018,-1.65918,0.899902
17:40:00,0.916016,-0.499023,0.656006
17:40:00,-0.239746,0.31665,0.045654
17:40:00,-0.88916,0.825684,-0.177002
17:40:00,-0.518799,1.232178,0.139648
17:40:00,-0.55249,1.205078,0.312988
17:40:00,-0.52832,0.973877,0.772949
17:40:00,-0.115234,0.639648,1.088379
17:40:00,0.4104,0.25,1.059326
17:40:00,0.835449,-0.239258,0.943115
17:40:00,1.17334,-0.684082,0.829102
17:40:00,1.263916,-1.216309,0.61499
17:40:00,1.064453,-1.428711,0.411377
17:40:00,0.740723,-1.148926,0.505127
17:40:00,0.465332,-0.730713,0.677246
17:40:00,0.35376,-0.362793,0.656738
17:40:00,0.485107,-0.270508,0.665039
17:40:00,0.759033,-0.526611,0.737061
17:40:00,0.914551,-0.941406,0.731445
17:40:00,0.951416,-1.239502,0.718262
17:40:00,0.927734,-1.319092,0.711426
17:40:00,0.874756,-1.22876,0.68335
17:40:00,0.833008,-1.050049,0.652344
17:40:00,0.833496,-0.952148,0.564453
17:40:00,0.935547,-0.985107,0.625977
17:40:00,1.178467,-1.169922,0.95166
17:40:00,1.498535,-1.406006,1.270752
17:40:00,1.911621,-1.531494,1.438232
17:40:00,2.32373,-1.459229,1.400146
17:40:00,2.603271,-1.322754,1.13501
17:40:00,2.724365,-1.272949,0.76123
17:40:00,2.600342,-1.376221,0.342041
17:40:00,2.456299,-1.505615,-0.164795
17:40:00,2.234619,-1.613281,-0.614502
17:40:00,2.046875,-1.486084,-1.054932
17:40:00,1.984375,-1.122314,-1.534912
17:40:00,1.982178,-0.68042,-2.054688
17:40:00,1.961182,-0.537842,-2.708984
17:40:00,2.122314,-0.759033,-3.60083
17:40:00,1.976074,-1.029541,-5.146729
17:40:00,1.983887,-0.527832,-4.792969
17:40:00,1.663574,0.293701,-2.568848
17:40:00,1.224609,0.645508,0.70752
17:40:00,0.421631,0.061768,2.655762
17:40:00,-2.285156,-0.735352,-1.230713
17:40:00,-5.486084,-0.725342,-2.99585
17:40:00,-4.050293,-0.440186,2.644287
17:40:00,0.874512,0.286133,4.489014
17:40:00,3.564209,1.356445,3.024902
17:40:00,7.05835,1.076904,2.009766
17:40:00,4.343506,-1.593018,-2.5
17:40:00,3.128174,-3.579102,-5.002441
17:40:00,6.05542,-5.754639,-0.626465
17:40:00,0.986816,-1.832031,0.256348
17:40:00,0.192871,-0.266602,0.264648
17:40:00,-0.445801,0.578125,0.160645
17:40:00,-0.703125,0.887695,0.445313
17:40:00,-0.411865,0.840576,0.900391
17:40:00,-0.596436,0.640381,0.933594
17:40:00,-0.594727,0.448242,1.026367
17:40:00,-0.089355,0.240479,0.851563
17:40:01,0.396729,-0.049072,0.628418
17:40:01,0.80835,-0.538086,0.663086
17:40:01,1.110107,-1.068359,0.702148
17:40:01,1.077393,-1.222412,0.622803
17:40:01,0.758057,-0.977051,0.622559
17:40:01,0.468018,-0.512207,0.781494
17:40:01,0.342773,-0.131348,0.833008
17:40:01,0.273682,0.115479,0.768799
17:40:01,0.376709,0.183838,0.683105
17:40:01,0.613037,-0.025146,0.650146
17:40:01,0.734131,-0.362305,0.686523
17:40:01,0.753906,-0.61499,0.712402
17:40:01,0.695313,-0.67627,0.725586
17:40:01,0.55542,-0.515869,0.744629
17:40:01,0.467285,-0.268311,0.743164
17:40:01,0.44873,-0.12085,0.710449
17:40:01,0.476563,-0.116699,0.695313
17:40:01,0.513672,-0.246094,0.69165
17:40:01,0.554932,-0.396484,0.725342
17:40:01,0.56665,-0.460205,0.73584
17:40:01,0.577393,-0.408936,0.734619
17:40:01,0.5625,-0.31665,0.731689
17:40:01,0.578613,-0.26416,0.702393
17:40:01,0.577881,-0.297607,0.71875
17:40:01,0.577637,-0.372803,0.718994
17:40:01,0.592773,-0.376953,0.703125
17:40:01,0.596191,-0.350342,0.717041
17:40:01,0.566406,-0.303955,0.71875
17:40:01,0.559814,-0.280762,0.71875
17:40:01,0.572754,-0.289063,0.722656
17:40:01,0.586182,-0.319092,0.692627
17:40:01,0.617188,-0.343262,0.699219
17:40:01,0.62915,-0.336182,0.690918
17:40:01,0.616943,-0.318848,0.696533
17:40:01,0.600342,-0.30127,0.702148
17:40:01,0.578369,-0.295166,0.714355
17:40:01,0.593506,-0.294678,0.71167
17:40:01,0.611084,-0.300781,0.701172
17:40:01,0.618652,-0.32959,0.701172
17:40:01,0.625244,-0.349609,0.709961
17:40:01,0.586182,-0.340332,0.720947
17:40:01,0.562744,-0.315186,0.724121
17:40:01,0.574951,-0.283203,0.694824
17:40:01,0.556885,-0.293213,0.659668
17:40:01,0.579346,-0.332275,0.674805
17:40:01,0.596436,-0.340576,0.649902
17:40:01,0.526855,-0.375488,0.740234
17:40:01,0.5354,-0.33667,0.793701
17:40:01,0.461426,-0.300049,0.815186
17:40:01,0.466064,-0.220703,0.813965
17:40:01,0.431641,-0.149414,0.828613
17:40:01,0.374268,-0.105225,0.829346
17:40:01,0.384033,0.009033,0.885742
17:40:01,-0.83252,0.768311,1.488281
17:40:01,-1.071533,0.380615,0.811035
17:40:01,-0.083008,-0.452393,0.434814
17:40:01,0.735596,-0.980469,1.308105
17:40:01,1.11792,-0.612549,1.351074
17:40:01,1.303711,-0.1604,1.331299
17:40:01,1.265137,-0.249512,1.697021
17:40:01,1.186768,-0.049316,1.175293
17:40:01,1.272949,-0.518066,1.127686
17:40:01,1.36792,-1.598877,1.54541
17:40:01,1.881836,-1.86499,1.898193
17:40:01,2.045898,-0.803955,2.108643
17:40:01,1.986816,0.460693,0.735596
17:40:01,4.356445,0.361572,1.935547
17:40:01,5.139404,-0.828125,2.777832
17:40:01,2.566162,-1.377197,0.482178
17:40:01,1.231201,-0.983398,0.384033
17:40:01,0.538818,-0.296143,0.770996
17:40:01,-0.34082,0.318359,0.025146
17:40:01,-0.671387,0.523926,-0.178711
17:40:01,-0.604004,0.813721,0.506592
17:40:01,-0.596924,0.964844,0.929688
17:40:01,-0.551025,0.922852,0.956055
17:40:01,-0.059082,0.648682,1.056641
17:40:01,0.506104,0.302979,0.97583
17:40:01,0.849854,-0.102051,0.813477
17:40:01,0.947998,-0.641113,0.795654
17:40:01,1.046631,-1.11792,0.794922
17:40:01,0.930176,-1.341797,0.645264
17:40:01,0.694824,-1.21582,0.587891
17:40:01,0.517578,-0.885498,0.733643
17:40:01,0.441406,-0.552002,0.767334
17:40:01,0.557617,-0.345703,0.754639
17:40:01,0.777588,-0.415527,0.734863
17:40:01,0.908936,-0.673584,0.743408
17:40:01,0.931152,-0.945068,0.755371
17:40:01,0.904541,-1.056885,0.801514
17:40:01,0.865234,-1.025146,0.817139
17:40:01,0.857178,-0.919434,0.762451
17:40:01,0.895508,-0.829346,0.628418
17:40:01,0.981689,-0.777588,0.608887
17:40:01,1.158936,-0.831543,0.924316
17:40:01,1.442627,-1.069336,1.381104
17:40:01,1.77002,-1.3396,1.577881
17:40:01,1.998779,-1.437744,1.331543
17:40:01,2.081543,-1.424316,0.878662
17:40:01,2.193604,-1.461426,0.623291
17:40:02,2.320313,-1.512207,0.4729
17:40:02,2.374756,-1.487793,0.202393
17:40:02,2.550537,-1.45166,-0.186035
17:40:02,2.583252,-1.40625,-0.905762
17:40:02,2.50415,-1.152588,-1.510498
17:40:02,2.612549,-0.784668,-2.316162
17:40:02,2.596924,-0.575195,-2.948242
17:40:02,2.259033,-0.62793,-3.86377
17:40:02,1.985596,-0.615234,-4.947998
17:40:02,1.800293,-0.300781,-5.075684
17:40:02,1.177246,0.283691,-1.902588
17:40:02,0.925293,0.908691,0.342041
17:40:02,-0.037109,0.160156,2.356445
17:40:02,-2.13623,-0.532715,-1.207275
17:40:02,-7.524414,-0.859131,-3.081787
17:40:02,-2.956299,-2.326904,4.31665
17:40:02,-1.480225,-1.255127,0.873535
17:40:02,4.068604,-1.613037,4.279053
17:40:02,7.999756,-2.188965,5.130127
17:40:02,2.542725,0.403564,-4.750488
17:40:02,1.514648,0.940186,-6.130615
17:40:02,5.389648,-1.266846,1.543213
17:40:02,3.651611,-1.614258,2.503662
17:40:02,0.056396,-0.509033,-0.626465
17:40:02,-0.599121,0.031738,-0.771729
17:40:02,-0.143311,0.073486,0.669922
17:40:02,-0.043701,-0.094971,1.70874
17:40:02,-0.504395,-0.212646,1.237305
17:40:02,-0.395508,-0.248047,0.626709
17:40:02,0.397705,-0.287354,0.696289
17:40:02,0.822266,-0.382324,0.786377
17:40:02,0.893555,-0.441406,0.554443
17:40:02,0.871094,-0.342529,0.532715
17:40:02,0.686768,-0.205566,0.694092
17:40:02,0.472168,-0.153809,0.702637
17:40:02,0.316895,-0.21167,0.696045
17:40:02,0.38916,-0.269043,0.797852
17:40:02,0.631104,-0.281738,0.716309
17:40:02,0.791504,-0.311523,0.642822
17:40:02,0.890381,-0.327148,0.59375
17:40:02,0.819824,-0.330566,0.632324
17:40:02,0.641846,-0.303711,0.679199
17:40:02,0.515137,-0.269775,0.7146
17:40:02,0.478027,-0.264648,0.723633
17:40:02,0.509033,-0.263428,0.696777
17:40:02,0.584229,-0.274658,0.674316
17:40:02,0.651611,-0.283936,0.66626
17:40:02,0.638916,-0.346436,0.694824
17:40:02,0.624512,-0.342041,0.695801
17:40:02,0.611084,-0.282227,0.685791
17:40:02,0.618652,-0.247314,0.685303
17:40:02,0.664795,-0.264404,0.70166
17:40:02,0.710693,-0.285156,0.683838
17:40:02,0.719238,-0.28125,0.637451
17:40:02,0.692383,-0.282715,0.659668
17:40:02,0.64917,-0.275146,0.688232
17:40:02,0.615479,-0.260742,0.669434
17:40:02,0.632568,-0.275391,0.672852
17:40:02,0.669434,-0.300293,0.668213
17:40:02,0.690918,-0.30127,0.649414
17:40:02,0.691162,-0.311768,0.641846
17:40:02,0.702148,-0.292236,0.657959
17:40:02,0.686768,-0.279297,0.655273
17:40:02,0.680908,-0.282715,0.661133
17:40:02,0.621094,-0.298828,0.706055
17:40:02,0.624268,-0.311768,0.701416
17:40:02,0.609375,-0.28125,0.65625
17:40:02,0.591064,-0.282227,0.671631
17:40:02,0.685547,-0.251953,0.65918
17:40:02,0.619629,-0.245605,0.622803
17:40:02,0.588135,-0.291748,0.681396
17:40:02,0.650391,-0.28125,0.668701
17:40:02,0.617188,-0.30127,0.611816
17:40:02,0.632813,-0.3396,0.622803
17:40:02,0.644531,-0.352295,0.762207
17:40:02,0.573486,-0.255127,0.786377
17:40:02,0.465088,-0.148193,0.811279
17:40:02,0.4375,-0.060791,0.894531
17:40:02,0.352051,0.117676,0.89209
17:40:02,0.250732,0.238281,0.826416
17:40:02,0.472656,0.113281,0.74292
17:40:02,-0.159424,0.120605,1.106201
17:40:02,-1.362061,0.013672,1.460938
17:40:02,-0.248535,-0.5625,1.18335
17:40:02,1.440186,-0.546143,1.051514
17:40:02,1.669189,-0.233643,1.451416
17:40:02,2.019287,-0.452393,1.528076
17:40:02,1.336426,-0.564697,1.069824
17:40:02,1.858887,-1.480713,1.572998
17:40:02,2.012695,-1.350342,1.840088
17:40:02,1.840576,-0.554443,1.649658
17:40:02,1.904785,0.509277,0.261475
17:40:02,4.341553,0.520996,2.000977
17:40:02,5.947754,-1.547119,3.438477
17:40:02,3.0979,-1.262451,-0.099121
17:40:02,2.111084,-1.282227,0.707031
17:40:02,1.078369,-0.243408,0.681152
17:40:02,-0.127197,0.470703,-0.052002
17:40:02,-0.75708,0.633789,-0.297852
17:40:02,-1.007568,0.803711,0.332031
17:40:03,-1.109131,0.864258,0.771973
17:40:03,-0.870361,0.685059,0.914063
17:40:03,-0.230713,0.368408,0.919678
17:40:03,0.471191,-0.105957,0.968506
17:40:03,1.031738,-0.828369,0.958008
17:40:03,1.243164,-1.492432,0.681641
17:40:03,1.114258,-1.701904,0.394531
17:40:03,0.722168,-1.445313,0.462158
17:40:03,0.323486,-0.965576,0.674316
17:40:03,0.086426,-0.536133,0.686035
17:40:03,0.159668,-0.39917,0.635742
17:40:03,0.524658,-0.652588,0.677979
17:40:03,0.81543,-1.051758,0.666016
17:40:03,0.924561,-1.270752,0.617432
17:40:03,0.904297,-1.281006,0.654541
17:40:03,0.79126,-1.147217,0.70752
17:40:03,0.738525,-1.018311,0.740723
17:40:03,0.7854,-1.072998,0.73877
17:40:03,0.880127,-1.220703,0.712158
17:40:03,0.933105,-1.324707,0.587402
17:40:03,1.010498,-1.44165,0.627441
17:40:03,1.265137,-1.529053,1.004883
17:40:03,1.702881,-1.633057,1.358154
17:40:03,2.065674,-1.734619,1.342773
17:40:03,2.419922,-1.709473,1.170898
17:40:03,2.640625,-1.536621,0.888672
17:40:03,2.71167,-1.375732,0.489502
17:40:03,2.604492,-1.336182,0.005859
17:40:03,2.374023,-1.271729,-0.503418
17:40:03,2.371338,-1.3125,-0.885498
17:40:03,2.330078,-1.201416,-1.291748
17:40:03,2.262939,-0.897461,-2.091553
17:40:03,2.018311,-0.593994,-3.137695
17:40:03,1.923828,-0.524902,-4.197266
17:40:03,1.725586,-0.344238,-5.779297
17:40:03,1.988281,-0.032227,-5.925293
17:40:03,2.096924,0.462158,-2.647949
17:40:03,1.939697,0.884766,0.689697
17:40:03,-0.145264,-0.892334,3.476318
17:40:03,-2.462402,-2.273193,1.028564
17:40:03,-4.45874,-1.349854,-4.186035
17:40:03,-4.39502,-0.415039,-0.00415
17:40:03,0.067627,1.069336,5.145996
17:40:03,4.422119,2.311035,5.60498
17:40:03,7.999756,1.835938,5.872803
17:40:03,1.94165,-0.220215,-3.686279
17:40:03,-1.481445,-1.172852,-7.067383
17:40:03,4.403076,-6.563721,2.756104
17:40:03,3.202637,-5.007568,1.378906
17:40:03,-0.052002,-1.189941,-1.651855
17:40:03,-0.13208,-0.341064,-0.209961
17:40:03,0.353516,0.504395,0.687256
17:40:03,0.289795,1.07251,1.003174
17:40:03,-0.408203,0.980713,0.361572
17:40:03,-0.71875,0.862305,0.5979
17:40:03,-0.536133,0.559326,1.049805
17:40:03,-0.178223,0.188965,0.944092
17:40:03,0.218262,-0.295166,0.761963
17:40:03,0.691162,-0.794922,0.714355
17:40:03,1.036621,-1.108887,0.654541
17:40:03,1.05249,-1.020996,0.535156
17:40:03,0.735352,-0.758545,0.68042
17:40:03,0.442383,-0.331787,0.754639
17:40:03,0.265137,0.032959,0.735352
17:40:03,0.266113,0.170654,0.758545
17:40:03,0.421387,0.051025,0.90625
17:40:03,0.626709,-0.294434,0.851807
17:40:03,0.760498,-0.603516,0.662354
17:40:03,0.686523,-0.708496,0.683594
17:40:03,0.505859,-0.581299,0.73291
17:40:03,0.391602,-0.286133,0.732178
17:40:03,0.366943,-0.084961,0.710205
17:40:03,0.439209,-0.087891,0.703369
17:40:03,0.578125,-0.275635,0.72876
17:40:03,0.686035,-0.526123,0.756348
17:40:03,0.696045,-0.639893,0.737061
17:40:03,0.607422,-0.528076,0.6875
17:40:03,0.555664,-0.327148,0.73877
17:40:03,0.541748,-0.225342,0.731689
17:40:03,0.500732,-0.23877,0.702393
17:40:03,0.562988,-0.345215,0.71875
17:40:03,0.577637,-0.450439,0.734131
17:40:03,0.578857,-0.443115,0.719727
17:40:03,0.563965,-0.371826,0.718506
17:40:03,0.563721,-0.303955,0.720215
17:40:03,0.549316,-0.289795,0.705566
17:40:03,0.542236,-0.328125,0.698486
17:40:03,0.572754,-0.381348,0.729004
17:40:03,0.568359,-0.399902,0.724609
17:40:03,0.561279,-0.360352,0.717529
17:40:03,0.560059,-0.329834,0.71875
17:40:03,0.572021,-0.32666,0.716309
17:40:03,0.57959,-0.328125,0.72998
17:40:03,0.582275,-0.325928,0.729492
17:40:03,0.561768,-0.332031,0.70459
17:40:03,0.54834,-0.360596,0.716064
17:40:03,0.529297,-0.382568,0.735107
17:40:03,0.474121,-0.368164,0.754883
17:40:03,0.491699,-0.311523,0.740723
17:40:03,0.518311,-0.28418,0.675781
17:40:04,0.498291,-0.346191,0.685303
17:40:04,0.588867,-0.395996,0.695801
17:40:04,0.605225,-0.424072,0.720947
17:40:04,0.555176,-0.372803,0.726563
17:40:04,0.536377,-0.294434,0.777588
17:40:04,0.470459,-0.23584,0.821533
17:40:04,0.393311,-0.187256,0.869873
17:40:04,0.1521,-0.123779,1.003174
17:40:04,-0.974609,0.58374,1.400146
17:40:04,-0.656006,0.089355,0.757568
17:40:04,0.653076,-0.579834,0.584961
17:40:04,-0.249756,-0.239746,1.325684
17:40:04,0.10376,-0.3479,0.530273
17:40:04,1.13208,-0.735596,1.193359
17:40:04,0.728516,-0.641846,1.116211
17:40:04,1.97998,-0.520264,1.700439
17:40:04,1.749756,0.103027,1.439697
17:40:04,1.090576,-0.397705,1.205566
17:40:04,1.281738,-1.168213,1.480469
17:40:04,1.828613,-1.218262,1.70874
17:40:04,1.306641,-0.777344,1.651855
17:40:04,1.302979,0.010742,0.366699
17:40:04,4.880371,-0.865967,2.64624
17:40:04,5.730469,-1.869385,2.940186
17:40:04,3.177002,-1.548096,0.202637
17:40:04,2.045898,-1.056152,0.60498
17:40:04,0.806641,-0.172607,0.689209
17:40:04,-0.304688,0.537842,-0.171875
17:40:04,-0.770508,0.766357,-0.254639
17:40:04,-0.891357,0.997803,0.30542
17:40:04,-0.920898,1.224609,0.691406
17:40:04,-0.665039,1.177979,0.817383
17:40:04,0.056885,0.790039,0.84082
17:40:04,0.696045,0.257324,0.857178
17:40:04,1.050049,-0.345459,0.801514
17:40:04,1.25415,-0.990234,0.714844
17:40:04,1.236328,-1.406982,0.535645
17:40:04,0.900635,-1.308105,0.469238
17:40:04,0.591309,-0.898193,0.618164
17:40:04,0.398438,-0.462646,0.713379
17:40:04,0.406494,-0.170654,0.71582
17:40:04,0.684326,-0.196045,0.760742
17:40:04,0.95459,-0.522705,0.757324
17:40:04,1.088867,-0.905762,0.738525
17:40:04,1.092041,-1.126465,0.651123
17:40:04,0.914307,-1.063965,0.530518
17:40:04,0.679932,-0.842773,0.396484
17:40:04,0.543701,-0.609863,0.28418
17:40:04,0.660156,-0.455078,0.387695
17:40:04,1.020996,-0.492676,0.773926
17:40:04,1.434326,-0.87793,1.287354
17:40:04,1.753906,-1.361084,1.532471
17:40:04,1.951904,-1.573975,1.389893
17:40:04,2.126465,-1.523682,1.195557
17:40:04,2.326172,-1.369873,1.094482
17:40:04,2.459229,-1.212646,0.939209
17:40:04,2.509521,-1.133545,0.661377
17:40:04,2.47876,-1.132324,0.283936
17:40:04,2.335693,-1.131104,-0.129395
17:40:04,2.200684,-1.131592,-0.54834
17:40:04,2.155273,-1.022217,-0.979736
17:40:04,2.084473,-0.846191,-1.283691
17:40:04,1.955078,-0.739502,-1.802979
17:40:04,1.822998,-0.817139,-2.290283
17:40:04,1.720215,-0.978271,-3.247803
17:40:04,1.609619,-0.943115,-4.349365
17:40:04,1.736816,-0.574463,-4.566162
17:40:04,1.341064,0.326416,-2.358643
17:40:04,1.51416,0.942383,-0.060791
17:40:04,0.750488,0.665771,2.147705
17:40:04,-1.767822,-0.193604,-0.629395
17:40:04,-6.320313,-0.413818,-4.55542
17:40:04,-2.987305,-2.61499,4.27832
17:40:04,-0.619385,-2.466797,3.297852
17:40:04,2.900635,-2.217285,5.183838
17:40:04,7.298096,-2.347412,6.106445
17:40:04,2.803223,0.3396,-2.591797
17:40:04,0.30249,0.925293,-6.594971
17:40:04,5.073975,-2.085449,1.04126
17:40:04,4.924561,-2.23291,2.945557
17:40:04,0.738525,-0.351563,-1.175537
17:40:04,-0.383301,0.17334,-1.019531
17:40:04,0.02124,0.219238,1.011475
17:40:04,-0.072266,0.094482,1.736328
17:40:04,-0.605469,-0.060303,0.97583
17:40:04,-0.489502,-0.277832,0.705322
17:40:04,0.318604,-0.501709,0.944092
17:40:04,0.738037,-0.522217,0.787842
17:40:04,0.831787,-0.435059,0.493652
17:40:04,0.918945,-0.26001,0.557861
17:40:04,0.791748,-0.095703,0.703369
17:40:04,0.462402,-0.084961,0.691895
17:40:04,0.301025,-0.203125,0.742676
17:40:04,0.371094,-0.30249,0.797363
17:40:04,0.597412,-0.327881,0.748535
17:40:04,0.789307,-0.282715,0.643799
17:40:04,0.888916,-0.265381,0.624512
17:40:04,0.848389,-0.2771,0.634033
17:40:04,0.690186,-0.308594,0.693604
17:40:04,0.549805,-0.31665,0.717529
17:40:05,0.508545,-0.293457,0.723145
17:40:05,0.544189,-0.243896,0.697021
17:40:05,0.601318,-0.229492,0.676514
17:40:05,0.605957,-0.240479,0.655273
17:40:05,0.564941,-0.262451,0.66626
17:40:05,0.591064,-0.322998,0.738281
17:40:05,0.600342,-0.358643,0.721436
17:40:05,0.609131,-0.313232,0.66748
17:40:05,0.630615,-0.257324,0.688232
17:40:05,0.615479,-0.240234,0.699463
17:40:05,0.612305,-0.269287,0.683594
17:40:05,0.63208,-0.312988,0.697021
17:40:05,0.648682,-0.304199,0.692139
17:40:05,0.658447,-0.27124,0.673828
17:40:05,0.655029,-0.26416,0.685791
17:40:05,0.661377,-0.259521,0.665283
17:40:05,0.669434,-0.255127,0.65332
17:40:05,0.657227,-0.285645,0.659912
17:40:05,0.673584,-0.278564,0.670654
17:40:05,0.671875,-0.263916,0.656494
17:40:05,0.670166,-0.265625,0.674561
17:40:05,0.655273,-0.264404,0.688232
17:40:05,0.656494,-0.25,0.687012
17:40:05,0.671631,-0.265381,0.671875
17:40:05,0.687256,-0.265625,0.65625
17:40:05,0.673096,-0.265625,0.67041
17:40:05,0.674316,-0.26416,0.670654
17:40:05,0.651611,-0.278809,0.681885
17:40:05,0.592285,-0.2854,0.7229
17:40:05,0.55127,-0.250488,0.652344
17:40:05,0.525391,-0.287842,0.685059
17:40:05,0.64502,-0.270264,0.618652
17:40:05,0.710205,-0.299805,0.59668
17:40:05,0.715088,-0.302979,0.654785
17:40:05,0.61377,-0.265625,0.798584
17:40:05,0.491455,-0.179688,0.893555
17:40:05,0.404297,-0.080566,0.943115
17:40:05,0.304199,0.04126,1.017822
17:40:05,0.220215,0.180908,0.856201
17:40:05,0.281006,0.1521,0.703857
17:40:05,0.530762,-0.032471,0.727051
17:40:05,0.481689,-0.116211,0.83374
17:40:05,-0.772949,0.029785,1.533447
17:40:05,-0.993652,-0.046631,1.665771
17:40:05,1.334229,-0.399658,0.828613
17:40:05,1.327881,-0.115723,1.427979
17:40:05,1.834229,-0.454346,1.393066
17:40:05,2.015381,-1.165283,1.070801
17:40:05,2.039307,-1.482422,1.138916
17:40:05,2.166016,-1.124512,1.79541
17:40:05,2.001953,0.080322,2.216553
17:40:05,2.393799,1.138916,0.279053
17:40:05,5.384521,0.978027,3.116211
17:40:05,5.07666,-0.825439,2.318604
17:40:05,2.831055,-0.837158,-0.029785
17:40:05,1.77002,-0.701172,0.725586
17:40:05,0.62207,0.113525,0.467773
17:40:05,-0.395752,0.536377,-0.367676
17:40:05,-0.836914,0.570313,-0.029785
17:40:05,-1.016602,0.524658,0.621826
17:40:05,-1.105957,0.41748,1.040527
17:40:05,-0.661377,0.123291,1.018311
17:40:05,0.219971,-0.383301,1.032959
17:40:05,0.880127,-1.007568,0.949463
17:40:05,1.157959,-1.373047,0.570068
17:40:05,1.105713,-1.344727,0.378418
17:40:05,0.694824,-1.037598,0.494873
17:40:05,0.231445,-0.640381,0.584717
17:40:05,0.043701,-0.426025,0.62915
17:40:05,0.192871,-0.531006,0.690674
17:40:05,0.543213,-0.844482,0.681641
17:40:05,0.82666,-1.119385,0.679199
17:40:05,0.965332,-1.23291,0.70752
17:40:05,0.937988,-1.158203,0.703125
17:40:05,0.830566,-1.028564,0.704102
17:40:05,0.770752,-0.977539,0.69873
17:40:05,0.787598,-1.032959,0.664063
17:40:05,0.832031,-1.141113,0.608398
17:40:05,0.827393,-1.187988,0.487793
17:40:05,0.833008,-1.138184,0.460205
17:40:05,0.984131,-1.124756,0.718506
17:40:05,1.259766,-1.270508,1.12085
17:40:05,1.575684,-1.42627,1.282959
17:40:05,1.987061,-1.460693,1.374756
17:40:05,2.387939,-1.375977,1.344482
17:40:05,2.597168,-1.333008,1.061523
17:40:05,2.69873,-1.322754,0.660889
17:40:05,2.586182,-1.275391,0.275146
17:40:05,2.561523,-1.226318,-0.169434
17:40:05,2.374023,-1.032227,-0.740967
17:40:05,2.241699,-0.778564,-1.322998
17:40:05,2.348145,-0.510498,-1.820557
17:40:05,2.30249,-0.23291,-2.665527
17:40:05,2.316406,-0.385254,-3.611084
17:40:05,2.233887,-0.680176,-4.931396
17:40:05,1.942871,-0.515869,-6.252197
17:40:05,1.429199,-0.0979,-3.613037
17:40:05,0.924316,0.739258,0.341553
17:40:05,0.315674,0.375,2.593506
17:40:05,-1.282959,-1.328125,3.062012
17:40:06,-4.359619,-1.139404,-3.179932
17:40:06,-6.490479,-0.626709,-3.077881
17:40:06,-1.819824,-0.019531,6.941895
17:40:06,5.021484,-0.255859,6.506348
17:40:06,7.81665,-2.147705,5.199951
17:40:06,2.163086,-0.687744,-3.501709
17:40:06,0.38208,-0.582031,-7.219482
17:40:06,5.657959,-4.41626,2.92334
17:40:06,3.837402,-2.085938,1.671875
17:40:06,0.484375,-0.009033,-1.397461
17:40:06,-0.302246,0.560303,-1.038818
17:40:06,0.077637,0.82959,0.739502
17:40:06,-0.127441,0.647217,1.540771
17:40:06,-0.819092,0.280762,1.194092
17:40:06,-0.960938,-0.063232,0.811279
17:40:06,-0.190186,-0.375977,0.958008
17:40:06,0.493408,-0.669678,0.969238
17:40:06,0.729004,-0.830811,0.683105
17:40:06,0.895508,-0.765381,0.592285
17:40:06,0.926025,-0.392578,0.637451
17:40:06,0.646484,-0.035156,0.751221
17:40:06,0.312988,0.055664,0.805664
17:40:06,0.203857,-0.068115,0.817383
17:40:06,0.337158,-0.276611,0.824219
17:40:06,0.600098,-0.429199,0.769287
17:40:06,0.806641,-0.426514,0.705566
17:40:06,0.796143,-0.308105,0.67627
17:40:06,0.606934,-0.221436,0.700195
17:40:06,0.413086,-0.21582,0.756104
17:40:06,0.339111,-0.248047,0.790771
17:40:06,0.399902,-0.296143,0.770264
17:40:06,0.517822,-0.313721,0.724121
17:40:06,0.59668,-0.293213,0.719482
17:40:06,0.604248,-0.272705,0.735596
17:40:06,0.536133,-0.229736,0.736084
17:40:06,0.49585,-0.236328,0.750732
17:40:06,0.507324,-0.269043,0.751709
17:40:06,0.688232,-0.328613,0.796875
17:40:06,0.703613,-0.375732,0.754883
17:40:06,0.675537,-0.305664,0.624756
17:40:06,0.649658,-0.242432,0.75293
17:40:06,0.577148,-0.201416,0.740723
17:40:06,0.51416,-0.233887,0.731689
17:40:06,0.55957,-0.301025,0.750732
17:40:06,0.600098,-0.319336,0.729004
17:40:06,0.631348,-0.294189,0.707764
17:40:06,0.655762,-0.257568,0.688965
17:40:06,0.651855,-0.245117,0.694092
17:40:06,0.62207,-0.257324,0.714111
17:40:06,0.603516,-0.271729,0.71582
17:40:06,0.561768,-0.304199,0.73999
17:40:06,0.555176,-0.302002,0.737549
17:40:06,0.5896,-0.271484,0.716553
17:40:06,0.597412,-0.254639,0.709961
17:40:06,0.587158,-0.255615,0.711914
17:40:06,0.585205,-0.257813,0.696533
17:40:06,0.536133,-0.264648,0.692627
17:40:06,0.47168,-0.298828,0.758545
17:40:06,0.538574,-0.2771,0.726074
17:40:06,0.536377,-0.287109,0.684326
17:40:06,0.57666,-0.324707,0.663818
17:40:06,0.612061,-0.339111,0.75293
17:40:06,0.561035,-0.263672,0.806641
17:40:06,0.458496,-0.174805,0.831055
17:40:06,0.454346,-0.118164,0.850098
17:40:06,0.483154,-0.059326,0.938965
17:40:06,0.391602,0.008301,0.916016
17:40:06,-1.095215,0.644043,1.506592
17:40:06,-1.072998,-0.003174,0.778076
17:40:06,0.266602,-0.895996,0.539063
17:40:06,0.544678,-0.786865,1.181641
17:40:06,0.822754,0.076904,0.862305
17:40:06,1.263184,0.631836,1.013428
17:40:06,1.479492,-0.144775,1.668701
17:40:06,1.449219,-0.449463,1.561768
17:40:06,1.499268,-0.692627,1.408203
17:40:06,1.375244,-1.12085,1.405273
17:40:06,1.496826,-1.102783,1.739258
17:40:06,1.348877,-0.625244,2.232422
17:40:06,0.845459,0.173828,0.431885
17:40:06,3.572021,-0.325439,1.930908
17:40:06,5.787842,-1.563232,3.576904
17:40:06,3.916016,-1.400146,0.671631
17:40:06,2.370117,-0.823486,0.294678
17:40:06,1.291748,-0.312256,1.072754
17:40:06,-0.131104,0.581787,0.106445
17:40:06,-0.659912,0.902344,-0.047119
17:40:06,-0.746826,1.01709,0.590332
17:40:06,-0.824707,1.023193,0.810059
17:40:06,-0.612305,0.852051,0.832275
17:40:06,0.151123,0.506592,0.789795
17:40:06,0.752686,-0.109375,0.789307
17:40:06,1.142822,-0.891357,0.832764
17:40:06,1.12085,-1.323242,0.623779
17:40:06,0.994873,-1.419922,0.452637
17:40:06,0.596436,-1.126953,0.587158
17:40:06,0.284668,-0.754639,0.697754
17:40:06,0.211426,-0.484375,0.692139
17:40:06,0.467285,-0.483643,0.664551
17:40:06,0.733887,-0.801758,0.618164
17:40:07,0.878662,-1.108398,0.595215
17:40:07,0.898193,-1.226807,0.59082
17:40:07,0.803223,-1.10498,0.609619
17:40:07,0.710449,-0.898438,0.602295
17:40:07,0.714111,-0.842529,0.525391
17:40:07,0.745117,-0.94165,0.429443
17:40:07,0.790039,-0.963623,0.355713
17:40:07,0.911133,-0.854004,0.465088
17:40:07,1.131592,-0.826904,0.801025
17:40:07,1.436523,-1.020264,1.266357
17:40:07,1.764893,-1.205811,1.522705
17:40:07,2.055664,-1.231445,1.433838
17:40:07,2.291992,-1.25708,1.297607
17:40:07,2.459961,-1.289551,1.145508
17:40:07,2.54834,-1.207275,0.912354
17:40:07,2.577637,-1.035889,0.610107
17:40:07,2.529785,-0.888184,0.184082
17:40:07,2.368164,-0.755127,-0.302002
17:40:07,2.258789,-0.616699,-0.82666
17:40:07,2.148193,-0.465088,-1.236084
17:40:07,2.239502,-0.3479,-1.766113
17:40:07,2.354004,-0.385986,-2.19043
17:40:07,2.151367,-0.580322,-3.091309
17:40:07,2.17334,-0.99707,-3.709961
17:40:07,1.903809,-1.058838,-4.532959
17:40:07,1.916504,-0.388916,-3.857178
17:40:07,0.877686,0.394043,-1.640869
17:40:07,0.831299,0.91748,0.890869
17:40:07,-0.156006,-0.239746,1.731445
17:40:07,-3.654053,-0.398438,-2.939209
17:40:07,-7.804199,-0.614014,1.418701
17:40:07,-1.982178,-0.817627,4.101318
17:40:07,-0.581299,-0.105225,0.412842
17:40:07,5.226318,-1.190918,3.768799
17:40:07,7.999756,-1.416504,1.78125
17:40:07,4.920654,0.272949,-7.34668
17:40:07,5.301514,-0.335938,-4.23291
17:40:07,4.131348,-0.897217,1.819336
17:40:07,-0.152588,-0.08252,0.615723
17:40:07,-0.72876,0.067139,-0.271973
17:40:07,-0.61084,0.101074,0.275146
17:40:07,-0.625977,-0.181152,1.265869
17:40:07,-0.703125,-0.348389,1.537354
17:40:07,-0.523193,-0.313232,1.100586
17:40:07,0.108154,-0.3479,0.647461
17:40:07,0.842041,-0.396729,0.712646
17:40:07,1.180664,-0.333496,0.534424
17:40:07,1.236328,-0.210693,0.381104
17:40:07,1.036865,-0.165527,0.531738
17:40:07,0.627686,-0.174072,0.704102
17:40:07,0.289795,-0.206787,0.739502
17:40:07,0.204102,-0.250732,0.797607
17:40:07,0.380615,-0.266113,0.799316
17:40:07,0.660645,-0.221191,0.682617
17:40:07,0.88501,-0.214844,0.598633
17:40:07,0.966553,-0.256592,0.604736
17:40:07,0.831055,-0.294434,0.61377
17:40:07,0.636963,-0.289063,0.684326
17:40:07,0.509521,-0.260742,0.734619
17:40:07,0.502197,-0.223145,0.717285
17:40:07,0.600342,-0.2229,0.681396
17:40:07,0.692627,-0.251465,0.656738
17:40:07,0.707764,-0.290283,0.662354
17:40:07,0.653076,-0.294922,0.682617
17:40:07,0.598389,-0.26416,0.691162
17:40:07,0.592041,-0.23584,0.679199
17:40:07,0.628418,-0.23999,0.669678
17:40:07,0.683838,-0.248535,0.671875
17:40:07,0.709717,-0.266113,0.67334
17:40:07,0.704346,-0.273682,0.665771
17:40:07,0.699951,-0.245361,0.653809
17:40:07,0.67627,-0.248779,0.65625
17:40:07,0.64624,-0.253418,0.655273
17:40:07,0.641357,-0.272217,0.660645
17:40:07,0.660889,-0.279785,0.67041
17:40:07,0.67627,-0.263672,0.654297
17:40:07,0.689209,-0.265137,0.65625
17:40:07,0.685791,-0.26709,0.656006
17:40:07,0.670898,-0.282227,0.657227
17:40:07,0.671143,-0.280518,0.672363
17:40:07,0.656006,-0.265625,0.671875
17:40:07,0.686279,-0.25,0.656738
17:40:07,0.689453,-0.262451,0.654053
17:40:07,0.660645,-0.292236,0.681396
17:40:07,0.638916,-0.317139,0.719727
17:40:07,0.669678,-0.263184,0.682617
17:40:07,0.645996,-0.235352,0.651611
17:40:07,0.648682,-0.233643,0.697266
17:40:07,0.684082,-0.225098,0.676514
17:40:07,0.588623,-0.272461,0.619873
17:40:07,0.598877,-0.32666,0.673096
17:40:07,0.613525,-0.318359,0.69873
17:40:07,0.583496,-0.279541,0.746094
17:40:07,0.576172,-0.197754,0.796387
17:40:07,0.532471,-0.130615,0.790771
17:40:07,0.486084,-0.135498,0.870117
17:40:07,0.443604,-0.046631,0.980225
17:40:07,0.331787,0.196289,0.940918
17:40:07,0.378418,0.249268,0.737549
17:40:07,-0.38916,0.359863,0.990479
17:40:08,-1.532471,0.259033,1.321045
17:40:08,0.120361,-0.978271,0.824707
17:40:08,1.528564,-1.110596,1.342041
17:40:08,0.698486,-0.000732,1.525391
17:40:08,1.373291,0.075439,1.442139
17:40:08,2.53833,-0.39209,1.973877
17:40:08,1.330811,-0.866455,0.869873
17:40:08,1.759766,-1.147949,1.202637
17:40:08,2.135742,-0.920898,1.73999
17:40:08,1.513916,-0.325439,0.708496
17:40:08,3.128906,-0.008545,1.266602
17:40:08,6.357178,-1.084717,3.719482
17:40:08,4.29126,-0.854492,0.739746
17:40:08,3.061523,-1.012451,0.732666
17:40:08,1.566406,-0.395264,0.727295
17:40:08,0.131104,0.372559,-0.049805
17:40:08,-0.630615,0.674072,-0.367432
17:40:08,-0.849121,0.713623,0.106689
17:40:08,-1.058838,0.70166,0.709717
17:40:08,-1.131836,0.631104,0.963867
17:40:08,-0.601807,0.431152,0.976074
17:40:08,0.242432,0.070557,1.003662
17:40:08,0.940918,-0.536865,0.986816
17:40:08,1.286865,-1.106445,0.696533
17:40:08,1.246338,-1.369141,0.334717
17:40:08,0.90625,-1.283203,0.381104
17:40:08,0.478516,-0.875732,0.638428
17:40:08,0.222412,-0.494629,0.70166
17:40:08,0.212646,-0.432861,0.701904
17:40:08,0.459473,-0.665039,0.648438
17:40:08,0.764404,-0.952393,0.602051
17:40:08,0.915283,-1.150635,0.636475
17:40:08,0.912109,-1.208008,0.678467
17:40:08,0.808105,-1.117432,0.697754
17:40:08,0.76416,-1.023438,0.757324
17:40:08,0.822266,-1.075684,0.764648
17:40:08,0.912109,-1.22876,0.728516
17:40:08,0.969482,-1.328857,0.624268
17:40:08,1.052734,-1.372803,0.62915
17:40:08,1.273682,-1.399902,0.986572
17:40:08,1.648926,-1.474365,1.344238
17:40:08,2.019043,-1.520508,1.386475
17:40:08,2.448975,-1.467773,1.348633
17:40:08,2.791016,-1.339111,1.208984
17:40:08,2.834961,-1.199951,0.740723
17:40:08,2.635742,-1.139893,0.141846
17:40:08,2.493164,-1.163086,-0.459961
17:40:08,2.345459,-1.123535,-0.878662
17:40:08,2.322021,-0.985596,-1.326904
17:40:08,2.411377,-0.70166,-1.839111
17:40:08,2.34668,-0.336426,-2.617432
17:40:08,2.190186,-0.31543,-3.49585
17:40:08,2.242188,-0.68335,-4.324707
17:40:08,2.155273,-0.741211,-5.713623
17:40:08,1.661865,-0.421875,-3.976318
17:40:08,1.059082,0.070801,-0.131592
17:40:08,0.252197,-0.237793,1.888184
17:40:08,-1.011475,-1.415527,2.646973
17:40:08,-4.100586,-1.077881,-2.609863
17:40:08,-6.617432,-0.63208,-1.110596
17:40:08,-2.104248,-0.015869,7.999756
17:40:08,0.643311,0.88501,0.563721
17:40:08,2.946045,1.871582,0.79126
17:40:08,6.040283,1.783936,0.395508
17:40:08,4.333008,-0.08374,-2.871826
17:40:08,6.196289,-5.226807,-3.274414
17:40:08,4.097656,-5.085205,-0.598145
17:40:08,0.865723,-2.844238,0.51001
17:40:08,-0.086914,-0.847412,0.000244
17:40:08,-0.209229,0.151611,0.395508
17:40:08,-0.658203,0.566162,0.73291
17:40:08,-0.32666,0.943359,0.779053
17:40:08,-0.226074,0.870361,0.724854
17:40:08,-0.253906,0.53418,0.735352
17:40:08,0.125977,0.217773,0.787598
17:40:08,0.486328,-0.167969,0.727051
17:40:08,0.661377,-0.731201,0.640381
17:40:08,0.83252,-1.190186,0.680664
17:40:08,0.910645,-1.197754,0.67627
17:40:08,0.718506,-0.799316,0.671631
17:40:08,0.474365,-0.298584,0.730469
17:40:08,0.364746,0.05957,0.712891
17:40:08,0.359375,0.178955,0.69751
17:40:08,0.487061,0.030029,0.713623
17:40:08,0.660156,-0.2854,0.667725
17:40:08,0.755859,-0.564209,0.666748
17:40:08,0.76709,-0.694336,0.710693
17:40:08,0.680664,-0.591553,0.698975
17:40:08,0.540283,-0.354004,0.685303
17:40:08,0.462158,-0.19458,0.6875
17:40:08,0.44043,-0.156738,0.687744
17:40:08,0.511963,-0.256348,0.685303
17:40:08,0.571533,-0.393311,0.673096
17:40:08,0.628906,-0.487549,0.704346
17:40:08,0.655762,-0.45166,0.702881
17:40:08,0.595459,-0.363037,0.688232
17:40:08,0.577148,-0.299316,0.670166
17:40:08,0.60376,-0.307861,0.716553
17:40:08,0.635254,-0.33667,0.696777
17:40:08,0.656006,-0.368652,0.64209
17:40:09,0.64624,-0.392334,0.676514
17:40:09,0.630127,-0.371582,0.693604
17:40:09,0.610352,-0.334717,0.664551
17:40:09,0.619141,-0.321289,0.651855
17:40:09,0.625977,-0.346436,0.668701
17:40:09,0.625,-0.369385,0.661133
17:40:09,0.625,-0.390137,0.663818
17:40:09,0.622803,-0.376953,0.673584
17:40:09,0.630859,-0.349365,0.675781
17:40:09,0.6521,-0.332031,0.652832
17:40:09,0.651123,-0.331055,0.650391
17:40:09,0.643066,-0.352295,0.67627
17:40:09,0.621338,-0.361572,0.66748
17:40:09,0.594482,-0.360352,0.69165
17:40:09,0.601807,-0.353271,0.709961
17:40:09,0.57251,-0.349854,0.674316
17:40:09,0.585205,-0.338623,0.664307
17:40:09,0.575439,-0.29126,0.594727
17:40:09,0.528076,-0.37915,0.659668
17:40:09,0.651123,-0.349609,0.644287
17:40:09,0.624512,-0.407227,0.696533
17:40:09,0.619141,-0.35083,0.760742
17:40:09,0.524658,-0.260498,0.861816
17:40:09,0.406982,-0.188232,0.843018
17:40:09,0.349365,-0.090332,0.969482
17:40:09,0.257568,0.119629,0.828613
17:40:09,0.225342,0.220459,0.753662
17:40:09,0.46167,0.091797,0.689209
17:40:09,-0.746094,0.5979,1.395996
17:40:09,-0.781494,0.012939,0.994873
17:40:09,0.412354,-0.875244,1.13916
17:40:09,1.421143,-0.945557,1.57959
17:40:09,1.467041,-0.491699,1.685547
17:40:09,1.397461,-0.437256,1.256104
17:40:09,1.727783,-1.155762,1.167969
17:40:09,2.199219,-1.684814,1.625488
17:40:09,2.460938,-1.384033,2.540039
17:40:09,1.855957,-0.317627,0.96875
17:40:09,2.876221,0.55127,0.622803
17:40:09,4.977783,-0.601807,3.121582
17:40:09,3.384521,-1.670654,1.880127
17:40:09,1.059814,-1.082031,0.033203
17:40:09,1.09375,-0.7771,1.059326
17:40:09,0.16626,0.101807,0.633789
17:40:09,-0.456299,0.537598,0.061279
17:40:09,-0.459961,0.773926,0.505371
17:40:09,-0.394531,0.921143,0.875732
17:40:09,-0.336426,0.838379,0.864746
17:40:09,0.102295,0.522461,0.857666
17:40:09,0.505371,0.079102,0.841309
17:40:09,0.73999,-0.497559,0.827148
17:40:09,0.907959,-1.140137,0.80835
17:40:09,0.847656,-1.476318,0.568848
17:40:09,0.7229,-1.551758,0.472412
17:40:09,0.482666,-1.150635,0.780762
17:40:09,0.349365,-0.725098,0.650635
17:40:09,0.354248,-0.432617,0.614014
17:40:09,0.562744,-0.494873,0.679199
17:40:09,0.736328,-0.824707,0.672363
17:40:09,0.807129,-1.146729,0.624512
17:40:09,0.829102,-1.264648,0.58667
17:40:09,0.768555,-1.151123,0.581543
17:40:09,0.631836,-0.983398,0.499023
17:40:09,0.565674,-0.938965,0.412109
17:40:09,0.624756,-1.009766,0.388184
17:40:09,0.82251,-1.070313,0.497314
17:40:09,0.953369,-1.07251,0.569336
17:40:09,1.032227,-1.14209,0.809326
17:40:09,1.421875,-1.310059,1.468994
17:40:09,1.932617,-1.446533,1.592041
17:40:09,2.160156,-1.516602,0.866699
17:40:09,2.263184,-1.505371,0.340576
17:40:09,2.410645,-1.364502,0.219238
17:40:09,2.493652,-1.104492,0.195557
17:40:09,2.496826,-0.813965,-0.078613
17:40:09,2.432617,-0.659912,-0.463379
17:40:09,2.376221,-0.588379,-0.801514
17:40:09,2.410156,-0.675049,-1.012207
17:40:09,2.223633,-0.840088,-1.24707
17:40:09,1.980225,-1.088379,-1.458008
17:40:09,1.65625,-1.125,-1.843262
17:40:09,1.371826,-0.991455,-2.188232
17:40:09,1.287109,-0.934082,-2.267822
17:40:09,1.255127,-0.8125,-2.418945
17:40:09,1.233887,-0.665771,-2.640381
17:40:09,1.14624,-0.092529,-1.22876
17:40:09,1.08667,0.169678,-0.016113
17:40:09,0.525879,-0.273682,1.680664
17:40:09,-0.442871,-0.747559,1.288086
17:40:09,-3.354248,-0.601807,-1.446289
17:40:09,-2.575439,-0.077637,1.46875
17:40:09,-0.921631,0.091309,2.084717
17:40:09,-0.70752,-0.014404,-0.25293
17:40:09,2.637451,-0.742432,2.833496
17:40:09,4.411377,-1.0271,3.745605
17:40:09,2.688477,-0.309082,-0.787354
17:40:09,2.658691,-0.278564,-2.285645
17:40:09,3.78418,-2.177002,0.266113
17:40:09,3.083252,-3.229736,1.313721
17:40:09,0.998779,-1.498779,-0.227051
17:40:10,0.393555,-0.501709,0.111084
17:40:10,0.225586,-0.221191,1.18457
17:40:10,-0.052979,0.096436,1.113037
17:40:10,-0.193604,0.338135,0.627197
17:40:10,0.117188,0.321289,0.649902
17:40:10,0.626953,0.015137,0.734619
17:40:10,0.822021,-0.458496,0.642822
17:40:10,0.87915,-0.790771,0.578369
17:40:10,0.87207,-0.887695,0.657715
17:40:10,0.725342,-0.620361,0.671143
17:40:10,0.489258,-0.247559,0.685059
17:40:10,0.311035,-0.031494,0.716064
17:40:10,0.266113,0.02124,0.720459
17:40:10,0.388184,-0.157715,0.708984
17:40:10,0.601074,-0.402832,0.681152
17:40:10,0.76709,-0.54126,0.648438
17:40:10,0.854004,-0.536865,0.625244
17:40:10,0.794922,-0.411865,0.632568
17:40:10,0.620605,-0.281738,0.647461
17:40:10,0.499023,-0.265869,0.675049
17:40:10,0.517822,-0.344238,0.70874
17:40:10,0.613281,-0.400635,0.669434
17:40:10,0.700195,-0.361328,0.633057
17:40:10,0.736084,-0.308594,0.640625
17:40:10,0.686523,-0.322754,0.636963
17:40:10,0.61792,-0.35791,0.655273
17:40:10,0.597168,-0.35083,0.671631
17:40:10,0.593018,-0.31665,0.646973
17:40:10,0.625244,-0.314941,0.644287
17:40:10,0.667236,-0.330322,0.654785
17:40:10,0.67334,-0.328125,0.633789
17:40:10,0.675537,-0.328125,0.626709
17:40:10,0.686768,-0.327637,0.63916
17:40:10,0.667969,-0.330322,0.625488
17:40:10,0.654785,-0.344971,0.641846
17:40:10,0.656006,-0.34375,0.640625
17:40:10,0.657959,-0.343018,0.639893
17:40:10,0.703125,-0.327881,0.624756
17:40:10,0.688477,-0.327881,0.624756
17:40:10,0.673584,-0.327148,0.624023
17:40:10,0.657715,-0.339355,0.63623
17:40:10,0.654297,-0.375732,0.672607
17:40:10,0.672852,-0.336914,0.631836
17:40:10,0.647461,-0.324463,0.633545
17:40:10,0.649902,-0.344238,0.655273
17:40:10,0.588623,-0.31958,0.645752
17:40:10,0.514893,-0.321045,0.648682
17:40:10,0.613281,-0.322266,0.597412
17:40:10,0.718018,-0.354492,0.572754
17:40:10,0.720703,-0.395264,0.611572
17:40:10,0.636719,-0.383545,0.744141
17:40:10,0.520752,-0.285889,0.791992
17:40:10,0.457031,-0.174316,0.770752
17:40:10,0.462402,-0.063477,0.890869
17:40:10,0.39917,0.086426,0.850098
17:40:10,0.311768,0.172363,0.652832
17:40:10,0.406494,0.103271,0.72168
17:40:10,0.561035,-0.133057,0.813965
17:40:10,-0.064697,-0.07251,1.373291
17:40:10,-1.363281,0.243164,2.077148
17:40:10,-0.356689,-0.45752,0.891602
17:40:10,1.606201,-0.688965,1.241699
17:40:10,3.013672,-1.05957,1.259766
17:40:10,1.558838,-0.795166,0.538086
17:40:10,2.436523,-1.506836,2.085693
17:40:10,2.453125,-1.161865,2.125977
17:40:10,1.645264,-0.228027,1.298096
17:40:10,1.994873,0.5271,-0.198242
17:40:10,4.980713,0.030029,3.480713
17:40:10,4.022461,-1.496582,2.345459
17:40:10,2.311035,-1.770264,0.604004
17:40:10,1.571289,-1.318604,1.052734
17:40:10,0.673584,-0.236328,0.741699
17:40:10,-0.10791,0.455566,0.039063
17:40:10,-0.401123,0.811523,0.063965
17:40:10,-0.469238,1.020264,0.421875
17:40:10,-0.581299,0.982178,0.714111
17:40:10,-0.354736,0.697998,0.834473
17:40:10,0.157227,0.230713,0.878906
17:40:10,0.647705,-0.397705,0.90625
17:40:10,1.016602,-1.157471,0.840088
17:40:10,1.113037,-1.674561,0.575439
17:40:10,0.878906,-1.65332,0.391113
17:40:10,0.526123,-1.256836,0.541504
17:40:10,0.297119,-0.733643,0.662842
17:40:10,0.260742,-0.364502,0.608154
17:40:10,0.432373,-0.37207,0.607666
17:40:10,0.654785,-0.737793,0.661621
17:40:10,0.748535,-1.148193,0.634521
17:40:10,0.791504,-1.378662,0.628174
17:40:10,0.766602,-1.379883,0.630859
17:40:10,0.655518,-1.219727,0.525879
17:40:10,0.604248,-1.0625,0.407715
17:40:10,0.616211,-1.013184,0.344238
17:40:10,0.798096,-1.015625,0.438477
17:40:10,0.988525,-1.038818,0.610352
17:40:10,1.146729,-1.24585,0.880127
17:40:10,1.367188,-1.576904,1.266602
17:40:10,1.7146,-1.797119,1.444824
17:40:10,2.072266,-1.794678,1.215332
17:40:11,2.268066,-1.676758,0.804688
17:40:11,2.355469,-1.496094,0.459961
17:40:11,2.351318,-1.343262,0.249023
17:40:11,2.290527,-1.210449,0.023926
17:40:11,2.176025,-1.144287,-0.298828
17:40:11,2.064697,-1.027588,-0.551758
17:40:11,2.000732,-0.870605,-0.694824
17:40:11,1.933594,-0.745117,-0.930176
17:40:11,1.753662,-0.665527,-1.408203
17:40:11,1.484131,-0.582031,-2.149414
17:40:11,1.383057,-0.638672,-2.947998
17:40:11,1.489014,-0.792236,-3.594482
17:40:11,1.7146,-0.880615,-4.054688
17:40:11,1.728027,-0.796631,-2.58374
17:40:11,1.223145,-0.37085,0.165771
17:40:11,0.512207,-0.743408,1.322266
17:40:11,-0.750732,-1.86377,2.361328
17:40:11,-2.794434,-1.350586,-1.172119
17:40:11,-4.782715,-0.589111,-1.484131
17:40:11,-1.15918,0.093018,4.707764
17:40:11,-0.427979,0.850098,1.46875
17:40:11,0.733887,1.360352,-0.477539
17:40:11,7.308838,4.75293,3.876221
17:40:11,3.282959,1.453125,-1.707031
17:40:11,2.310303,0.150391,-3.177002
17:40:11,2.784424,-4.373779,0.352051
17:40:11,2.488037,-8,1.140869
17:40:11,1.171875,-4.357178,-1.101074
17:40:11,0.491211,-1.786865,-0.11377
17:40:11,0.628418,-0.318604,0.990479
17:40:11,0.531494,0.779541,0.496582
17:40:11,0.236084,1.364258,-0.248291
17:40:11,0.033447,1.447754,-0.003174
17:40:11,-0.229248,1.068359,0.851074
17:40:11,-0.387695,0.427734,1.146973
17:40:11,-0.235596,-0.063721,0.848877
17:40:11,0.170898,-0.407715,0.644531
17:40:11,0.696045,-0.823242,0.733643
17:40:11,1.075439,-1.194336,0.75415
17:40:11,1.125488,-1.230713,0.61499
17:40:11,0.919678,-0.88623,0.605713
17:40:11,0.641113,-0.42041,0.713623
17:40:11,0.427734,-0.069092,0.754639
17:40:11,0.300537,0.114502,0.70166
17:40:11,0.339844,0.145996,0.6604
17:40:11,0.521484,0.008301,0.656738
17:40:11,0.651855,-0.263672,0.675537
17:40:11,0.679688,-0.525879,0.693359
17:40:11,0.686279,-0.674805,0.723389
17:40:11,0.646973,-0.641846,0.734131
17:40:11,0.558105,-0.437256,0.716797
17:40:11,0.546631,-0.248047,0.687012
17:40:11,0.546631,-0.157715,0.672119
17:40:11,0.544922,-0.177979,0.670898
17:40:11,0.57251,-0.291504,0.68335
17:40:11,0.604004,-0.404297,0.716309
17:40:11,0.621094,-0.470703,0.708252
17:40:11,0.637939,-0.432617,0.689941
17:40:11,0.647705,-0.338623,0.688965
17:40:11,0.611084,-0.270996,0.673828
17:40:11,0.56665,-0.266357,0.681396
17:40:11,0.563232,-0.306152,0.690918
17:40:11,0.604004,-0.361328,0.677734
17:40:11,0.647949,-0.381836,0.670166
17:40:11,0.663818,-0.370605,0.671875
17:40:11,0.644043,-0.343262,0.669678
17:40:11,0.607666,-0.316406,0.679199
17:40:11,0.578857,-0.308594,0.689453
17:40:11,0.585449,-0.318848,0.688965
17:40:11,0.625488,-0.328857,0.680176
17:40:11,0.64502,-0.334473,0.674805
17:40:11,0.644531,-0.341064,0.688721
17:40:11,0.623535,-0.324951,0.689941
17:40:11,0.570068,-0.332275,0.715088
17:40:11,0.574463,-0.342529,0.72583
17:40:11,0.563232,-0.326904,0.665527
17:40:11,0.580566,-0.32251,0.664551
17:40:11,0.571045,-0.303711,0.628906
17:40:11,0.519775,-0.392578,0.705322
17:40:11,0.643066,-0.342529,0.671387
17:40:11,0.624756,-0.343994,0.687012
17:40:11,0.658447,-0.298828,0.698486
17:40:11,0.580811,-0.300781,0.787109
17:40:11,0.428711,-0.24707,0.818359
17:40:11,0.353516,-0.190186,0.884766
17:40:11,0.320313,-0.126221,1.017334
17:40:11,0.282715,0.117676,0.811035
17:40:11,0.50415,0.168945,0.535889
17:40:11,-0.876953,1.046875,1.26709
17:40:11,-0.497559,0.453857,0.682861
17:40:11,0.852295,-0.772461,0.967041
17:40:11,0.818848,-1.090088,1.728271
17:40:11,0.905273,-0.634521,1.637939
17:40:11,1.580078,-0.321045,1.257568
17:40:11,1.738281,-0.770752,1.197021
17:40:11,1.755615,-1.375244,1.1875
17:40:11,2.235107,-1.491211,1.592041
17:40:11,2.154785,-0.991455,2.057617
17:40:11,1.626221,-0.077148,0.776855
17:40:11,3.186035,0.309326,1.201416
17:40:12,4.722412,-0.536133,3.545654
17:40:12,2.566895,-1.709473,1.318359
17:40:12,1.251953,-1.543213,0.580078
17:40:12,0.845703,-0.81665,1.128174
17:40:12,0.031006,0.107666,0.41626
17:40:12,-0.39502,0.636963,0.030762
17:40:12,-0.354736,1.073242,0.387451
17:40:12,-0.273926,1.335449,0.672363
17:40:12,-0.16748,1.181396,0.751465
17:40:12,0.215576,0.640625,0.84082
17:40:12,0.517822,0.040039,0.862793
17:40:12,0.718018,-0.548096,0.783936
17:40:12,0.92041,-1.216309,0.854492
17:40:12,0.924316,-1.647705,0.690186
17:40:12,0.761475,-1.512939,0.511963
17:40:12,0.583252,-1.089355,0.647705
17:40:12,0.408203,-0.644287,0.666992
17:40:12,0.410156,-0.346924,0.599609
17:40:12,0.571533,-0.394775,0.678711
17:40:12,0.717041,-0.745361,0.728271
17:40:12,0.78833,-1.131104,0.731934
17:40:12,0.8125,-1.337646,0.679688
17:40:12,0.770508,-1.298828,0.577148
17:40:12,0.666992,-1.105713,0.48877
17:40:12,0.540283,-0.958496,0.359863
17:40:12,0.522217,-0.910156,0.303467
17:40:12,0.714355,-0.889893,0.458496
17:40:12,0.966797,-1.00293,0.744141
17:40:12,1.221191,-1.352051,1.195068
17:40:12,1.571533,-1.695068,1.567139
17:40:12,1.889893,-1.763672,1.308838
17:40:12,2.047607,-1.687744,0.762695
17:40:12,2.121582,-1.585938,0.39502
17:40:12,2.141602,-1.379883,0.203369
17:40:12,2.269043,-1.230469,0.156738
17:40:12,2.347168,-1.182129,0
17:40:12,2.308594,-1.154297,-0.39624
17:40:12,2.204102,-1.111084,-0.790527
17:40:12,2.174805,-0.947266,-1.10083
17:40:12,2.145996,-0.879883,-1.335938
17:40:12,1.920898,-0.865967,-1.811523
17:40:12,1.544922,-0.809082,-2.403564
17:40:12,1.507813,-0.756104,-2.777344
17:40:12,1.579102,-0.885254,-2.929932
17:40:12,1.727539,-0.770264,-2.894775
17:40:12,1.0354,-0.105713,-2.210938
17:40:12,0.765137,-0.068848,-0.375977
17:40:12,0.134277,-0.623047,1.060303
17:40:12,-1.938721,-0.769043,0.248047
17:40:12,-3.335693,-0.782471,0.919678
17:40:12,-2.972168,-0.783447,1.190918
17:40:12,-2.111328,-0.507568,-0.936523
17:40:12,3.201904,-1.097412,4.283691
17:40:12,6.151855,-1.160156,6.583984
17:40:12,1.879395,0.434814,-2.967285
17:40:12,1.979248,0.614014,-4.872559
17:40:12,4.931641,-2.218262,1.342529
17:40:12,3.763428,-3.930908,1.976807
17:40:12,0.355225,-1.03125,-1.443359
17:40:12,-0.029053,-0.655518,0.163818
17:40:12,0.170654,-0.397217,1.592041
17:40:12,-0.14917,0.13916,1.09668
17:40:12,-0.52417,0.273193,0.43457
17:40:12,-0.07959,0.276123,0.811523
17:40:12,0.551514,0.131104,0.864014
17:40:12,0.721436,-0.321045,0.543945
17:40:12,0.824219,-0.765137,0.558838
17:40:12,0.884033,-0.960205,0.680664
17:40:12,0.693359,-0.716553,0.674316
17:40:12,0.482422,-0.327637,0.669922
17:40:12,0.401611,-0.126221,0.679443
17:40:12,0.326904,-0.082031,0.733398
17:40:12,0.465576,-0.210449,0.686279
17:40:12,0.62793,-0.440674,0.682129
17:40:12,0.759033,-0.571289,0.679932
17:40:12,0.797852,-0.526367,0.662598
17:40:12,0.70459,-0.379395,0.640381
17:40:12,0.563477,-0.28418,0.652832
17:40:12,0.456543,-0.273926,0.692383
17:40:12,0.471924,-0.333008,0.710693
17:40:12,0.588379,-0.405762,0.69165
17:40:12,0.678223,-0.44043,0.651855
17:40:12,0.695313,-0.426514,0.640869
17:40:12,0.641357,-0.361328,0.664307
17:40:12,0.57666,-0.308594,0.674072
17:40:12,0.571533,-0.327148,0.670654
17:40:12,0.594238,-0.393311,0.678467
17:40:12,0.652832,-0.407959,0.678467
17:40:12,0.65918,-0.38208,0.633545
17:40:12,0.651611,-0.355713,0.645752
17:40:12,0.617432,-0.359131,0.675049
17:40:12,0.592529,-0.360596,0.670166
17:40:12,0.611084,-0.376709,0.655273
17:40:12,0.625732,-0.390381,0.655762
17:40:12,0.640381,-0.375,0.640625
17:40:12,0.656006,-0.374756,0.639893
17:40:12,0.643799,-0.375977,0.655029
17:40:12,0.611328,-0.359619,0.65625
17:40:12,0.620361,-0.374023,0.65625
17:40:12,0.63623,-0.362549,0.65625
17:40:13,0.65332,-0.358643,0.658203
17:40:13,0.65918,-0.356934,0.642334
17:40:13,0.647217,-0.370361,0.650635
17:40:13,0.633545,-0.375977,0.655029
17:40:13,0.610352,-0.377197,0.668457
17:40:13,0.560059,-0.367676,0.663818
17:40:13,0.552979,-0.344238,0.656738
17:40:13,0.547363,-0.354492,0.647705
17:40:13,0.572266,-0.394531,0.636719
17:40:13,0.630371,-0.413818,0.647705
17:40:13,0.656494,-0.39917,0.651611
17:40:13,0.653076,-0.350098,0.679443
17:40:13,0.556885,-0.290039,0.729492
17:40:13,0.423096,-0.256592,0.746338
17:40:13,0.416992,-0.164795,0.808838
17:40:13,0.559082,-0.020508,0.8396
17:40:13,0.004883,0.373047,1.115479
17:40:13,-1.571289,1.008301,1.554688
17:40:13,-0.51709,-0.435547,0.41333
17:40:13,0.914795,-1.355225,0.996826
17:40:13,0.605469,-0.877686,1.63501
17:40:13,1.124023,-0.299805,1.301758
17:40:13,2.64502,-0.610596,1.38208
17:40:13,1.554688,-0.445068,2.02002
17:40:13,0.460938,-0.919922,1.194336
17:40:13,1.000732,-1.016602,1.428711
17:40:13,1.721436,-0.853516,1.396729
17:40:13,1.357666,-0.479492,0.791016
17:40:13,2.254395,0.377197,0.263916
17:40:13,5.834229,-1.022217,3.3125
17:40:13,5.034912,-2.153564,1.64502
17:40:13,3.051758,-2.3125,0.557617
17:40:13,1.561523,-1.25415,0.663574
17:40:13,0.247314,-0.036865,0.137451
17:40:13,-0.633301,0.579102,-0.332275
17:40:13,-0.79541,0.950928,-0.099854
17:40:13,-0.665771,1.382568,0.494385
17:40:13,-0.716309,1.536865,0.80835
17:40:13,-0.383301,1.241455,0.895996
17:40:13,0.30957,0.723145,0.876465
17:40:13,0.711914,0.134521,0.719971
17:40:13,0.932861,-0.48877,0.665771
17:40:13,1.062256,-1.24585,0.679688
17:40:13,0.984619,-1.758301,0.568115
17:40:13,0.739014,-1.660645,0.503174
17:40:13,0.558594,-1.162109,0.696045
17:40:13,0.461426,-0.635742,0.701172
17:40:13,0.4646,-0.301025,0.536865
17:40:13,0.599365,-0.286621,0.504395
17:40:13,0.716553,-0.637451,0.624268
17:40:13,0.817383,-1.033203,0.752441
17:40:13,0.890381,-1.248291,0.704834
17:40:13,0.836182,-1.258057,0.516846
17:40:13,0.702148,-1.080078,0.301025
17:40:13,0.619141,-0.828125,0.205322
17:40:13,0.711914,-0.594727,0.365479
17:40:13,0.872803,-0.474365,0.572998
17:40:13,1.002197,-0.71582,0.876953
17:40:13,1.385254,-1.293701,1.532959
17:40:13,1.82666,-1.715088,1.618408
17:40:13,2.053467,-1.804932,1.046387
17:40:13,2.234619,-1.726807,0.688965
17:40:13,2.343262,-1.494385,0.65918
17:40:13,2.406006,-1.197754,0.600342
17:40:13,2.426758,-1.034424,0.325439
17:40:13,2.347412,-1.041016,-0.133301
17:40:13,2.213623,-1.070068,-0.498779
17:40:13,2.123535,-0.962646,-0.68457
17:40:13,2.109131,-0.833984,-0.85376
17:40:13,1.981689,-0.865479,-1.186523
17:40:13,1.678467,-0.906738,-1.722656
17:40:13,1.452881,-0.825928,-2.267578
17:40:13,1.43457,-0.755859,-2.768555
17:40:13,1.587402,-0.745361,-3.063965
17:40:13,1.603027,-0.42749,-3.075684
17:40:13,1.445313,0.401855,-2.055664
17:40:13,1.375732,0.611816,0.125732
17:40:13,0.585449,0.235107,1.492432
17:40:13,-1.075684,-0.248291,0.314941
17:40:13,-3.401855,-0.448975,-0.534668
17:40:13,-2.060791,-1.295654,1.496094
17:40:13,-1.787109,-1.614014,0.091797
17:40:13,1.57666,-4.354248,2.803467
17:40:13,2.841309,-3.516846,2.697266
17:40:13,3.239746,-1.73877,2.167236
17:40:13,2.645264,0.420654,0.199951
17:40:13,2.813232,2.5354,-2.563721
17:40:13,3.27002,1.648682,-0.758301
17:40:13,2.469971,-0.819824,1.311768
17:40:13,0.776123,-1.827148,0.758545
17:40:13,-0.137451,-1.804199,0.338867
17:40:13,-0.063477,-1.547363,0.901611
17:40:13,0.102783,-0.943115,1.162354
17:40:13,0.142578,-0.301514,0.869385
17:40:13,0.378906,0.106934,0.607666
17:40:13,0.809326,0.394531,0.541504
17:40:13,1.017578,0.42749,0.457031
17:40:13,0.791504,0.021729,0.470215
17:40:13,0.469727,-0.489014,0.715332
17:40:13,0.340332,-0.713135,0.883301
17:40:14,0.323242,-0.639404,0.825684
17:40:14,0.411865,-0.400391,0.741699
17:40:14,0.580566,-0.15625,0.686523
17:40:14,0.719238,-0.087402,0.644531
17:40:14,0.772949,-0.204346,0.624756
17:40:14,0.738281,-0.406982,0.666504
17:40:14,0.631592,-0.536377,0.737793
17:40:14,0.591553,-0.462646,0.717285
17:40:14,0.5625,-0.314209,0.687744
17:40:14,0.576172,-0.206787,0.672852
17:40:14,0.606934,-0.209717,0.65625
17:40:14,0.608154,-0.310303,0.668457
17:40:14,0.622559,-0.38501,0.683594
17:40:14,0.623291,-0.388916,0.704346
17:40:14,0.637207,-0.317383,0.679199
17:40:14,0.641357,-0.267578,0.670166
17:40:14,0.640625,-0.270264,0.671875
17:40:14,0.640625,-0.303467,0.671875
17:40:14,0.638184,-0.314941,0.671875
17:40:14,0.647705,-0.316895,0.67627
17:40:14,0.666748,-0.294434,0.653809
17:40:14,0.673584,-0.273438,0.634766
17:40:14,0.673828,-0.294922,0.648438
17:40:14,0.66626,-0.32373,0.658203
17:40:14,0.645508,-0.331787,0.654541
17:40:14,0.644531,-0.323242,0.663818
17:40:14,0.657227,-0.305664,0.668457
17:40:14,0.661133,-0.288086,0.653809
17:40:14,0.674072,-0.283447,0.65625
17:40:14,0.671875,-0.299072,0.65625
17:40:14,0.671875,-0.297363,0.65625
17:40:14,0.674316,-0.292969,0.653809
17:40:14,0.656982,-0.284668,0.668457
17:40:14,0.57373,-0.311279,0.738525
17:40:14,0.607178,-0.280273,0.695801
17:40:14,0.563965,-0.296631,0.638672
17:40:14,0.641357,-0.281006,0.656006
17:40:14,0.641357,-0.279785,0.625244
17:40:14,0.60791,-0.341553,0.637939
17:40:14,0.675293,-0.314697,0.664063
17:40:14,0.568359,-0.331543,0.717529
17:40:14,0.510254,-0.288574,0.815918
17:40:14,0.46875,-0.187988,0.806396
17:40:14,0.413818,-0.099121,0.889893
17:40:14,0.327881,0.031494,0.894775
17:40:14,0.28833,0.154541,0.7854
17:40:14,0.437988,0.187012,0.643311
17:40:14,0.66333,0.115479,0.608643
17:40:14,0.826172,-0.140137,0.76416
17:40:14,0.19043,-0.246094,1.44873
17:40:14,-0.817627,-0.2229,2.084961
17:40:14,-0.266846,-0.349854,1.652832
17:40:14,1.92334,-0.659424,1.570557
17:40:14,2.630859,-0.739746,1.07251
17:40:14,1.955811,-1.01001,0.455811
17:40:14,2.314941,-1.696289,1.866699
17:40:14,2.143311,-1.138428,1.792969
17:40:14,1.914795,0.287842,0.441895
17:40:14,3.460693,0.572266,1.242432
17:40:14,4.76416,-0.728516,3.598633
17:40:14,2.278076,-1.562744,0.862793
17:40:14,1.132324,-1.251221,0.488281
17:40:14,0.613037,-0.485596,0.922607
17:40:14,-0.101074,0.309326,0.354248
17:40:14,-0.465088,0.692139,0.100586
17:40:14,-0.468994,0.96582,0.635254
17:40:14,-0.405518,1.145752,0.947021
17:40:14,-0.129883,0.889404,0.811279
17:40:14,0.287842,0.375488,0.78125
17:40:14,0.599121,-0.166504,0.780762
17:40:14,0.830322,-0.815186,0.802002
17:40:14,0.893799,-1.412842,0.658936
17:40:14,0.733643,-1.581543,0.504639
17:40:14,0.52417,-1.282959,0.641357
17:40:14,0.375732,-0.77002,0.740723
17:40:14,0.409912,-0.3479,0.659668
17:40:14,0.601807,-0.273926,0.618408
17:40:14,0.71167,-0.560303,0.607178
17:40:14,0.751221,-0.957275,0.645264
17:40:14,0.769287,-1.179688,0.679443
17:40:14,0.736816,-1.111572,0.592529
17:40:14,0.662598,-0.872314,0.453857
17:40:14,0.562012,-0.708984,0.321777
17:40:14,0.549316,-0.692383,0.318115
17:40:14,0.731201,-0.704834,0.512939
17:40:14,0.980469,-0.721436,0.665527
17:40:14,1.077881,-0.816162,0.767578
17:40:14,1.198486,-1.062744,1.096924
17:40:14,1.502441,-1.295654,1.522949
17:40:14,1.82251,-1.435303,1.347412
17:40:14,1.938721,-1.472168,0.875732
17:40:14,2.121582,-1.396973,0.793945
17:40:14,2.292969,-1.115967,0.875488
17:40:14,2.359131,-0.871094,0.790771
17:40:14,2.271484,-0.825439,0.39209
17:40:14,2.113037,-0.970215,0.059326
17:40:14,1.931885,-1.072998,-0.133057
17:40:14,1.806641,-1.049072,-0.239014
17:40:14,1.69165,-1.066895,-0.357666
17:40:14,1.558838,-1.128418,-0.645264
17:40:15,1.3125,-1.065674,-1.155518
17:40:15,1.163818,-0.9646,-1.602783
17:40:15,1.226807,-0.974365,-2.046875
17:40:15,1.345459,-0.998291,-2.726318
17:40:15,1.390625,-0.849854,-3.493896
17:40:15,1.795898,-0.616211,-3.442627
17:40:15,2.273193,-0.338379,-0.5979
17:40:15,2.115723,0.322998,1.267334
17:40:15,1.382568,0.307373,1.934326
17:40:15,0.111816,-0.89502,2.613281
17:40:15,-1.970459,-1.119873,-0.502197
17:40:15,-4.013916,-0.22583,-2.973877
17:40:15,-2.288574,0.258057,2.433838
17:40:15,0.708252,0.35376,5.172852
17:40:15,-0.430176,-0.197754,-0.991455
17:40:15,2.07373,-1.082031,0.728271
17:40:15,4.575684,-2.284668,3.32666
17:40:15,3.108398,-0.729004,0.018799
17:40:15,3.368896,0.008789,-1.656006
17:40:15,3.444092,-0.588379,-0.276611
17:40:15,2.172607,-2.272949,1.31665
17:40:15,0.666992,-1.584473,0.425049
17:40:15,0.050537,-0.848145,0.325195
17:40:15,-0.102295,-0.628174,1.056885
17:40:15,-0.159424,-0.357178,1.288574
17:40:15,-0.116699,0.006836,0.841064
17:40:15,0.318848,0.259277,0.564453
17:40:15,0.818604,0.193848,0.579346
17:40:15,0.958252,-0.177734,0.589111
17:40:15,0.810303,-0.595947,0.609131
17:40:15,0.512451,-0.846436,0.743896
17:40:15,0.395264,-0.641846,0.795654
17:40:15,0.33252,-0.291504,0.772461
17:40:15,0.356689,-0.043701,0.703857
17:40:15,0.508057,-0.00293,0.636963
17:40:15,0.640137,-0.229248,0.668457
17:40:15,0.705078,-0.508301,0.720703
17:40:15,0.741211,-0.59082,0.715088
17:40:15,0.710693,-0.473877,0.698975
17:40:15,0.618164,-0.294678,0.661865
17:40:15,0.546875,-0.211426,0.649414
17:40:15,0.531006,-0.278564,0.700684
17:40:15,0.578857,-0.377686,0.700684
17:40:15,0.624023,-0.410889,0.686035
17:40:15,0.645264,-0.353027,0.683838
17:40:15,0.637939,-0.285645,0.669434
17:40:15,0.62085,-0.303711,0.674072
17:40:15,0.607666,-0.350098,0.688965
17:40:15,0.610352,-0.359131,0.686035
17:40:15,0.626221,-0.341553,0.671143
17:40:15,0.640625,-0.311768,0.671875
17:40:15,0.640625,-0.296875,0.671875
17:40:15,0.640625,-0.310791,0.671875
17:40:15,0.640625,-0.32666,0.671875
17:40:15,0.640625,-0.328125,0.671875
17:40:15,0.642334,-0.328125,0.673584
17:40:15,0.62793,-0.328125,0.657227
17:40:15,0.619873,-0.328125,0.66748
17:40:15,0.647705,-0.330322,0.674805
17:40:15,0.658203,-0.317139,0.658447
17:40:15,0.65625,-0.308838,0.665283
17:40:15,0.658447,-0.324463,0.673096
17:40:15,0.64917,-0.320313,0.671875
17:40:15,0.632324,-0.306396,0.669678
17:40:15,0.608643,-0.332764,0.686035
17:40:15,0.63208,-0.332275,0.664551
17:40:15,0.655518,-0.308105,0.639404
17:40:15,0.643066,-0.3125,0.669678
17:40:15,0.626709,-0.308105,0.650391
17:40:15,0.56543,-0.329834,0.643311
17:40:15,0.559326,-0.360352,0.681885
17:40:15,0.616455,-0.347412,0.628418
17:40:15,0.621094,-0.356689,0.662598
17:40:15,0.627197,-0.313721,0.749268
17:40:15,0.524902,-0.246582,0.752197
17:40:15,0.477295,-0.171875,0.780273
17:40:15,0.487549,-0.082764,0.865234
17:40:15,0.525635,0.106934,0.839355
17:40:15,0.427979,0.206055,0.893799
17:40:15,-1.668213,1.110596,1.875
17:40:15,-0.919922,-0.256348,0.866943
17:40:15,0.71875,-1.661621,1.254639
17:40:15,0.466309,-0.831055,1.851318
17:40:15,0.946533,-0.248047,1.395508
17:40:15,1.709717,-0.555664,1.544189
17:40:15,2.147217,-0.86499,1.915771
17:40:15,2.777832,-1.058838,1.406982
17:40:15,2.832275,-1.037842,2.160156
17:40:15,0.978271,-0.365967,0.39209
17:40:15,2.307373,-1.37793,2.870117
17:40:15,3.031494,-2.369629,3.48291
17:40:15,1.432861,-1.787354,0.945068
17:40:15,0.385254,-0.903564,0.876709
17:40:15,0.154297,0.057373,1.334473
17:40:15,0.053955,1.023438,0.780273
17:40:15,0.135742,1.671631,0.733154
17:40:15,0.238037,1.93335,0.868652
17:40:15,0.06543,1.437012,0.753174
17:40:15,0.031738,0.544434,0.816406
17:40:15,0.146729,-0.275879,0.888672
17:40:16,0.373535,-1.188965,0.985107
17:40:16,0.638672,-1.943115,0.875488
17:40:16,0.597656,-1.918213,0.462402
17:40:16,0.539795,-1.532959,0.677246
17:40:16,0.318604,-0.980225,0.768555
17:40:16,0.362549,-0.508545,0.67627
17:40:16,0.597412,-0.415527,0.623047
17:40:16,0.752441,-0.761719,0.638672
17:40:16,0.751709,-1.146729,0.506348
17:40:16,0.659668,-1.256592,0.307373
17:40:16,0.674561,-1.074463,0.281494
17:40:16,0.779541,-0.770752,0.438721
17:40:16,0.946289,-0.551514,0.648438
17:40:16,1.145264,-0.619385,0.954834
17:40:16,1.489502,-0.871582,1.283203
17:40:16,1.935059,-1.1521,1.377197
17:40:16,2.107178,-1.423828,0.973145
17:40:16,2.050781,-1.686768,0.593018
17:40:16,2.10498,-1.729004,0.607666
17:40:16,2.194824,-1.394287,0.621094
17:40:16,2.216797,-0.994385,0.415527
17:40:16,2.182373,-0.693115,0.094238
17:40:16,2.105713,-0.492676,-0.22876
17:40:16,1.994629,-0.533691,-0.3479
17:40:16,1.772461,-0.804932,-0.247314
17:40:16,1.493896,-1.032959,-0.24292
17:40:16,1.322266,-1.067139,-0.431396
17:40:16,1.257324,-0.961914,-0.660889
17:40:16,1.236572,-0.693115,-0.891846
17:40:16,1.212891,-0.411133,-0.990723
17:40:16,1.22583,-0.251465,-0.997803
17:40:16,1.250977,-0.247803,-1.097412
17:40:16,1.23291,-0.439453,-1.215088
17:40:16,1.232178,-0.678711,-1.160156
17:40:16,1.223633,-0.804688,-1.039063
17:40:16,1.222412,-0.733887,-0.771973
17:40:16,0.467773,-0.375244,-0.309814
17:40:16,0.605713,-0.964355,1.106201
17:40:16,0.14624,-0.977295,0.713623
17:40:16,-0.844971,-0.678223,0.785889
17:40:16,-1.431885,-0.486572,1.554199
17:40:16,-1.192627,0.148193,1.875732
17:40:16,-0.80249,0.481201,0.000977
17:40:16,0.516113,0.411865,0.029297
17:40:16,2.756836,-0.187744,2.314697
17:40:16,2.50293,-0.889893,1.184326
17:40:16,2.22168,-1.575439,0.265381
17:40:16,3.082275,-1.275635,1.773682
17:40:16,2.699463,-0.073975,1.543213
17:40:16,1.436279,0.965576,-0.187744
17:40:16,0.832275,1.266602,-0.192139
17:40:16,0.417725,0.598877,0.864014
17:40:16,-0.145264,-0.55127,1.236084
17:40:16,-0.082764,-1.365723,1.088623
17:40:16,0.549072,-1.606201,0.851318
17:40:16,0.852295,-1.331787,0.70752
17:40:16,0.747314,-0.760254,0.763184
17:40:16,0.687256,-0.174805,0.832275
17:40:16,0.628174,0.182617,0.759033
17:40:16,0.512939,0.231689,0.716309
17:40:16,0.449219,0.022461,0.755859
17:40:16,0.508545,-0.241211,0.76709
17:40:16,0.532471,-0.449951,0.765381
17:40:16,0.512207,-0.533691,0.766357
17:40:16,0.467285,-0.464111,0.781494
17:40:16,0.452881,-0.316162,0.781738
17:40:16,0.481934,-0.180176,0.737793
17:40:16,0.496582,-0.119141,0.69873
17:40:16,0.529053,-0.214355,0.781006
17:40:16,0.521973,-0.425537,0.845215
17:40:16,0.499268,-0.567627,0.792236
17:40:16,0.409668,-0.583252,0.790771
17:40:16,0.467285,-0.423828,0.804199
17:40:16,0.520752,-0.259521,0.768311
17:40:16,0.567139,-0.213623,0.723145
17:40:16,0.574219,-0.270264,0.723633
17:40:16,0.551514,-0.374023,0.745117
17:40:16,0.542969,-0.431396,0.751465
17:40:16,0.557129,-0.406982,0.75
17:40:16,0.556641,-0.341797,0.753662
17:40:16,0.542969,-0.287842,0.733643
17:40:16,0.553467,-0.280273,0.720947
17:40:16,0.566162,-0.311279,0.736572
17:40:16,0.556885,-0.333984,0.734375
17:40:16,0.544434,-0.322998,0.734375
17:40:16,0.547607,-0.311035,0.734375
17:40:16,0.542725,-0.307617,0.734375
17:40:16,0.529053,-0.297607,0.734375
17:40:16,0.53125,-0.317139,0.734375
17:40:16,0.530518,-0.330078,0.734375
17:40:16,0.53418,-0.326172,0.734375
17:40:16,0.56665,-0.311523,0.734375
17:40:16,0.595459,-0.311768,0.73291
17:40:16,0.609375,-0.296631,0.702881
17:40:16,0.625244,-0.296631,0.718262
17:40:16,0.597412,-0.295898,0.717773
17:40:16,0.566406,-0.310791,0.732666
17:40:16,0.546875,-0.3125,0.734375
17:40:16,0.557617,-0.3125,0.736084
17:40:16,0.575439,-0.3125,0.72168
17:40:17,0.578613,-0.3125,0.71582
17:40:17,0.578125,-0.3125,0.72998
17:40:17,0.58252,-0.3125,0.735352
17:40:17,0.552734,-0.314697,0.736572
17:40:17,0.567871,-0.300293,0.724609
17:40:17,0.564941,-0.302246,0.714844
17:40:17,0.534668,-0.322754,0.731445
17:40:17,0.527344,-0.329834,0.719971
17:40:17,0.540527,-0.326172,0.695313
17:40:17,0.541992,-0.33667,0.71875
17:40:17,0.531982,-0.341064,0.730713
17:40:17,0.520752,-0.321289,0.718018
17:40:17,0.48999,-0.30957,0.751465
17:40:17,0.486084,-0.280273,0.790771
17:40:17,0.506836,-0.230957,0.793945
17:40:17,0.283691,-0.036621,0.888184
17:40:17,-0.690186,0.496826,1.146973
17:40:17,-1.109375,0.386719,1.037109
17:40:17,1.024902,-0.77832,0.574951
17:40:17,0.534912,-0.364014,1.439209
17:40:17,0.114258,-0.303223,1.045898
17:40:17,0.917236,-0.974854,1.349365
17:40:17,1.107178,-0.534668,1.268799
17:40:17,1.154297,-0.51123,0.880371
17:40:17,1.557129,-0.613281,1.908936
17:40:17,1.216064,-0.669189,1.454346
17:40:17,1.30835,-0.662598,1.121338
17:40:17,1.84375,-0.64917,1.671875
17:40:17,1.180176,-0.541016,2.056396
17:40:17,0.439453,-0.040771,0.29248
17:40:17,3.17627,-1.135742,2.775146
17:40:17,3.360107,-1.83252,2.142822
17:40:17,1.696777,-1.561279,0.443848
17:40:17,0.642578,-1.014648,0.787598
17:40:17,-0.074951,-0.250732,1.01709
17:40:17,-0.412354,0.542725,0.821777
17:40:17,-0.204102,1.266602,0.869385
17:40:17,0.320557,1.79126,0.81665
17:40:17,0.735107,1.64624,0.548828
17:40:17,0.84375,0.892822,0.574219
17:40:17,0.71167,0.096924,0.820557
17:40:17,0.51001,-0.625488,0.932617
17:40:17,0.531982,-1.240479,0.998779
17:40:17,0.730469,-1.375732,0.877686
17:40:17,0.771729,-0.969482,0.713379
17:40:17,0.623535,-0.517822,0.737549
17:40:17,0.548584,-0.201172,0.658447
17:40:17,0.551025,-0.150635,0.669434
17:40:17,0.624756,-0.401367,0.790283
17:40:17,0.759033,-0.728027,0.777344
17:40:17,0.811768,-0.923828,0.683105
17:40:17,0.708252,-0.880127,0.430664
17:40:17,0.583252,-0.708496,0.295166
17:40:17,0.589844,-0.51001,0.419434
17:40:17,0.771484,-0.378418,0.655029
17:40:17,0.942383,-0.412842,0.721191
17:40:17,0.991211,-0.603027,0.765137
17:40:17,1.10083,-0.824951,1.081787
17:40:17,1.349609,-1.007568,1.39502
17:40:17,1.567139,-1.159912,1.182617
17:40:17,1.637207,-1.279297,0.779297
17:40:17,1.703613,-1.275146,0.664795
17:40:17,1.862305,-1.033447,0.81665
17:40:17,2.008545,-0.697021,0.865479
17:40:17,2.098389,-0.50293,0.63208
17:40:17,2.105957,-0.499268,0.278076
17:40:17,2.034668,-0.624023,0.038086
17:40:17,1.897705,-0.796387,-0.018555
17:40:17,1.681885,-0.930664,-0.07251
17:40:17,1.527588,-0.999512,-0.240234
17:40:17,1.502441,-0.989502,-0.439453
17:40:17,1.49585,-0.879395,-0.660645
17:40:17,1.472168,-0.732422,-0.891357
17:40:17,1.425293,-0.600342,-1.150391
17:40:17,1.400635,-0.51709,-1.448975
17:40:17,1.383057,-0.505615,-1.71167
17:40:17,1.36499,-0.445801,-1.996582
17:40:17,1.46875,-0.439453,-2.021729
17:40:17,1.566895,-0.486572,-2.183105
17:40:17,1.069336,-0.501465,-0.824707
17:40:17,-0.012939,-0.10083,0.670654
17:40:17,-0.933838,-0.693848,1.707275
17:40:17,-2.419922,-1.067383,1.33667
17:40:17,-2.478271,-0.983643,-0.072021
17:40:17,-0.343262,-1.619873,0.943604
17:40:17,2.794922,-3.037598,3.189697
17:40:17,1.936279,-1.912842,1.052002
17:40:17,1.545654,-0.727539,0.376953
17:40:17,3.400391,1.102539,1.85498
17:40:17,3.560303,2.598145,-0.017578
17:40:17,2.30835,2.416016,-1.980225
17:40:17,1.375488,0.971436,-0.460205
17:40:17,0.429932,-1.256592,1.614502
17:40:17,-0.455078,-2.721436,1.474854
17:40:17,-0.248779,-2.574951,0.544922
17:40:17,0.393555,-1.894531,0.695801
17:40:17,0.377441,-1.252686,1.060059
17:40:17,0.430908,-0.502441,0.834961
17:40:17,0.854004,0.223877,0.578613
17:40:17,1.093506,0.661377,0.430908
17:40:18,0.917725,0.674072,0.39624
17:40:18,0.560059,0.26123,0.501221
17:40:18,0.377197,-0.217285,0.734619
17:40:18,0.335205,-0.64209,0.881836
17:40:18,0.372314,-0.857422,0.848145
17:40:18,0.485107,-0.807617,0.757813
17:40:18,0.587646,-0.5354,0.74707
17:40:18,0.67334,-0.242676,0.70166
17:40:18,0.687988,-0.065186,0.657471
17:40:18,0.64624,-0.095947,0.638184
17:40:18,0.584473,-0.280273,0.692627
17:40:18,0.560547,-0.474609,0.761475
17:40:18,0.586426,-0.557373,0.74585
17:40:18,0.607178,-0.467529,0.69751
17:40:18,0.614258,-0.302734,0.67334
17:40:18,0.59082,-0.216309,0.668701
17:40:18,0.549561,-0.234619,0.68042
17:40:18,0.560547,-0.322021,0.698975
17:40:18,0.595703,-0.411377,0.706543
17:40:18,0.626465,-0.416016,0.689209
17:40:18,0.665771,-0.367432,0.71167
17:40:18,0.661133,-0.31543,0.689697
17:40:18,0.632813,-0.277344,0.642334
17:40:18,0.608643,-0.298584,0.679199
17:40:18,0.587646,-0.342773,0.70459
17:40:18,0.59668,-0.339844,0.679199
17:40:18,0.622559,-0.326904,0.670654
17:40:18,0.64502,-0.322021,0.665771
17:40:18,0.641357,-0.314453,0.658203
17:40:18,0.636719,-0.330078,0.673828
17:40:18,0.623291,-0.328125,0.671875
17:40:18,0.621338,-0.328369,0.671875
17:40:18,0.612061,-0.325928,0.672119
17:40:18,0.642822,-0.311035,0.670166
17:40:18,0.642578,-0.3125,0.655273
17:40:18,0.67334,-0.311768,0.655518
17:40:18,0.687256,-0.296875,0.640625
17:40:18,0.672852,-0.311768,0.655518
17:40:18,0.661133,-0.310547,0.654297
17:40:18,0.601563,-0.340332,0.684082
17:40:18,0.574219,-0.344238,0.689453
17:40:18,0.608643,-0.351074,0.681885
17:40:18,0.675781,-0.296387,0.619873
17:40:18,0.705566,-0.257813,0.609375
17:40:18,0.615723,-0.304932,0.666016
17:40:18,0.538574,-0.351318,0.717529
17:40:18,0.51123,-0.378906,0.700928
17:40:18,0.595947,-0.354492,0.679932
17:40:18,0.674072,-0.304932,0.703125
17:40:18,0.619629,-0.243896,0.730713
17:40:18,0.50708,-0.210938,0.728271
17:40:18,0.445313,-0.19165,0.760254
17:40:18,0.554199,-0.147461,0.748291
17:40:18,-0.076416,0.449219,1.157959
17:40:18,-1.272461,0.911377,1.374512
17:40:18,-0.58252,-0.197754,0.579102
17:40:18,0.874023,-1.230469,0.954346
17:40:18,0.643311,-0.730225,1.801514
17:40:18,1.69165,-0.365234,1.371094
17:40:18,3.643555,-1.169678,2.360352
17:40:18,1.180664,-0.767822,1.792236
17:40:18,0.514404,-0.88501,1.229004
17:40:18,1.348145,-0.90918,1.894287
17:40:18,2.26416,-0.264893,2.202148
17:40:18,1.651367,0.310303,0.406006
17:40:18,2.801514,0.426025,1.353027
17:40:18,4.278564,-1.801758,3.721436
17:40:18,2.089111,-1.977783,0.744385
17:40:18,0.951172,-1.72583,0.64502
17:40:18,0.237793,-0.732178,0.775146
17:40:18,-0.19458,0.193359,0.450928
17:40:18,-0.435059,0.837402,0.372803
17:40:18,-0.276123,1.498047,0.676758
17:40:18,-0.043701,1.985352,0.671631
17:40:18,0.216064,1.670898,0.541016
17:40:18,0.484375,0.909912,0.672607
17:40:18,0.636963,0.230225,0.782227
17:40:18,0.716797,-0.341797,0.793457
17:40:18,0.861084,-0.970459,0.875732
17:40:18,0.898926,-1.399658,0.778564
17:40:18,0.778076,-1.272461,0.651611
17:40:18,0.663574,-0.774658,0.741943
17:40:18,0.602539,-0.294678,0.745605
17:40:18,0.654297,-0.037109,0.67041
17:40:18,0.746338,-0.114502,0.67041
17:40:18,0.78125,-0.477539,0.67627
17:40:18,0.766113,-0.830322,0.619385
17:40:18,0.677002,-0.990234,0.455811
17:40:18,0.673096,-0.89502,0.407471
17:40:18,0.856445,-0.607666,0.531494
17:40:18,1.043457,-0.368164,0.67334
17:40:18,1.112793,-0.281006,0.713623
17:40:18,1.101563,-0.421631,0.869141
17:40:18,1.330322,-0.705566,1.377686
17:40:18,1.67334,-1.058838,1.55835
17:40:18,1.785645,-1.320313,1.03833
17:40:18,1.86792,-1.472412,0.718506
17:40:18,2.031006,-1.358643,0.773193
17:40:18,2.145996,-1.022217,0.88208
17:40:18,2.146973,-0.745361,0.693115
17:40:19,2.150635,-0.648438,0.371826
17:40:19,2.102051,-0.682861,0.068604
17:40:19,2.003418,-0.76123,-0.143555
17:40:19,1.816895,-0.974609,-0.216309
17:40:19,1.581787,-1.20459,-0.318604
17:40:19,1.40918,-1.298584,-0.579346
17:40:19,1.34375,-1.217529,-0.848633
17:40:19,1.341797,-0.98584,-1.063721
17:40:19,1.319336,-0.708008,-1.333984
17:40:19,1.367676,-0.483154,-1.596436
17:40:19,1.537598,-0.428223,-1.848633
17:40:19,1.838135,-0.621582,-1.886475
17:40:19,1.80127,-0.365234,-1.928955
17:40:19,1.298096,0.164307,-1.400391
17:40:19,1.010498,-0.32251,0.524414
17:40:19,-0.090576,-0.661377,0.81958
17:40:19,-1.700439,-0.769531,0.276611
17:40:19,-2.964355,-0.872314,0.454102
17:40:19,-1.879395,-1.531738,2.504883
17:40:19,-0.90918,-1.895508,0.19043
17:40:19,2.13501,-3.330322,2.263428
17:40:19,2.378906,-2.29248,1.874756
17:40:19,1.520508,-0.483643,0.881836
17:40:19,3.328369,1.838135,1.380127
17:40:19,3.657715,4.043701,-1.699951
17:40:19,2.207031,2.40625,-2.331787
17:40:19,1.211426,0.16748,0.183594
17:40:19,0.563232,-2.806885,2.38501
17:40:19,-0.523438,-3.378906,0.80127
17:40:19,-0.126709,-2.811279,0.101563
17:40:19,0.269043,-2.10791,1.050781
17:40:19,0.150635,-1.204834,1.155029
17:40:19,0.340576,-0.256836,0.664795
17:40:19,0.844482,0.506592,0.484375
17:40:19,1.09375,0.994629,0.384766
17:40:19,0.830322,0.968262,0.257568
17:40:19,0.431641,0.509766,0.39624
17:40:19,0.24707,-0.047852,0.746094
17:40:19,0.201416,-0.587891,0.953125
17:40:19,0.289063,-0.979248,0.910889
17:40:19,0.518555,-1.094238,0.832031
17:40:19,0.668945,-0.903076,0.798584
17:40:19,0.686768,-0.494385,0.708008
17:40:19,0.679688,-0.149658,0.676758
17:40:19,0.59082,0.027588,0.667969
17:40:19,0.475098,-0.023926,0.679443
17:40:19,0.451416,-0.217773,0.728027
17:40:19,0.493164,-0.411377,0.754883
17:40:19,0.558105,-0.540039,0.76416
17:40:19,0.646484,-0.491943,0.732422
17:40:19,0.687256,-0.341064,0.718262
17:40:19,0.643311,-0.222412,0.688232
17:40:19,0.583252,-0.18457,0.685547
17:40:19,0.546875,-0.251709,0.714355
17:40:19,0.570313,-0.331543,0.734131
17:40:19,0.603027,-0.375,0.72168
17:40:19,0.624756,-0.356934,0.720215
17:40:19,0.620117,-0.308594,0.706787
17:40:19,0.576416,-0.27832,0.702148
17:40:19,0.543945,-0.297119,0.700684
17:40:19,0.566162,-0.335449,0.715576
17:40:19,0.576172,-0.348633,0.710205
17:40:19,0.596436,-0.33667,0.699219
17:40:19,0.614746,-0.317627,0.713867
17:40:19,0.605225,-0.310547,0.710449
17:40:19,0.578369,-0.310547,0.708496
17:40:19,0.547607,-0.319336,0.720703
17:40:19,0.554443,-0.331787,0.720215
17:40:19,0.595947,-0.322021,0.712646
17:40:19,0.61084,-0.308838,0.699463
17:40:19,0.58374,-0.317139,0.707764
17:40:19,0.550049,-0.331055,0.719971
17:40:19,0.521729,-0.325684,0.723145
17:40:19,0.519287,-0.303467,0.733643
17:40:19,0.552979,-0.279297,0.7146
17:40:19,0.563965,-0.302246,0.69751
17:40:19,0.562988,-0.332764,0.697266
17:40:19,0.557617,-0.3396,0.801758
17:40:19,0.479736,-0.261963,0.781006
17:40:19,0.406494,-0.219482,0.796387
17:40:19,0.436035,-0.13208,0.840576
17:40:19,0.4375,-0.039795,0.871826
17:40:19,0.562988,-0.073242,0.826172
17:40:19,-0.825684,0.769531,1.591309
17:40:19,-0.953125,0.390381,0.93042
17:40:19,0.526855,-0.803223,0.886475
17:40:19,1.005859,-0.946533,1.681641
17:40:19,0.351318,-0.384521,1.150879
17:40:19,0.635986,-0.102539,1.36792
17:40:19,1.598389,-0.252441,1.97998
17:40:19,1.947266,-0.744141,1.505371
17:40:19,2.094971,-1.255859,1.388184
17:40:19,2.435791,-1.208008,2.333252
17:40:19,1.771973,-0.312988,0.992188
17:40:19,2.360352,0.899414,0.587891
17:40:19,4.063232,0.307861,2.897217
17:40:19,3.020996,-1.238281,2.07373
17:40:19,1.145996,-1.372803,0.349609
17:40:19,0.542725,-0.921631,0.878662
17:40:19,-0.092529,-0.026611,0.496094
17:40:20,-0.462402,0.521973,0.212891
17:40:20,-0.447754,0.942139,0.482422
17:40:20,-0.309326,1.240234,0.726563
17:40:20,-0.095703,1.16626,0.616455
17:40:20,0.301758,0.658447,0.654785
17:40:20,0.52832,0.068604,0.758789
17:40:20,0.635742,-0.475342,0.768066
17:40:20,0.735107,-1.028076,0.79541
17:40:20,0.69165,-1.355469,0.675049
17:40:20,0.544434,-1.235596,0.633301
17:40:20,0.439941,-0.822021,0.802246
17:40:20,0.474121,-0.390137,0.755615
17:40:20,0.636475,-0.161133,0.648682
17:40:20,0.741943,-0.305664,0.667236
17:40:20,0.743164,-0.679688,0.735107
17:40:20,0.721924,-0.998535,0.773438
17:40:20,0.729248,-1.163086,0.757324
17:40:20,0.680664,-1.105713,0.570557
17:40:20,0.579346,-0.926025,0.330566
17:40:20,0.492188,-0.786865,0.222412
17:40:20,0.588867,-0.746582,0.406006
17:40:20,0.811279,-0.775879,0.691895
17:40:20,0.968262,-0.885498,0.880127
17:40:20,1.207764,-1.125977,1.213135
17:40:20,1.515625,-1.406006,1.4104
17:40:20,1.680664,-1.560059,1.07373
17:40:20,1.776855,-1.566406,0.699463
17:40:20,1.869873,-1.480225,0.660889
17:40:20,1.976563,-1.297119,0.810059
17:40:20,2.060547,-1.075684,0.803467
17:40:20,2.067139,-0.974365,0.531738
17:40:20,1.932129,-0.935547,0.180176
17:40:20,1.746094,-0.854736,0.023438
17:40:20,1.516846,-0.826904,0.112549
17:40:20,1.445068,-1.064453,-0.094482
17:40:20,1.39917,-1.334717,-0.187744
17:40:20,1.234863,-1.250488,-0.57666
17:40:20,1.158691,-1.034424,-0.81665
17:40:20,1.153809,-0.754395,-0.888184
17:40:20,1.177246,-0.500488,-1.084961
17:40:20,1.240234,-0.367432,-1.284912
17:40:20,1.411377,-0.512207,-1.416504
17:40:20,1.199707,-0.464844,-1.91626
17:40:20,1.320313,-0.379639,-1.933838
17:40:20,1.432373,-0.661133,-1.329834
17:40:20,1.134033,-0.652588,-1.119873
17:40:20,0.076416,-0.257813,0.363037
17:40:20,-1.031738,-0.512451,1.705078
17:40:20,-2.025879,-0.977539,2.214355
17:40:20,-2.130127,-0.716309,0.913086
17:40:20,-0.368652,-0.662354,0.38501
17:40:20,2.299072,-1.706787,2.18457
17:40:20,2.37207,-1.796143,1.302246
17:40:20,1.616943,-0.844482,0.051514
17:40:20,3.109131,-0.066162,1.728027
17:40:20,3.286865,1.187256,0.956787
17:40:20,2.195068,1.430664,-0.94043
17:40:20,1.314209,0.679443,-0.396729
17:40:20,0.534912,-0.90625,1.38501
17:40:20,-0.196533,-2.132324,1.48999
17:40:20,-0.15918,-2.000244,0.731201
17:40:20,0.449219,-1.609863,0.862061
17:40:20,0.418457,-1.168213,0.946777
17:40:20,0.587402,-0.564209,0.766846
17:40:20,0.91333,0.016357,0.652588
17:40:20,1.00293,0.369141,0.564209
17:40:20,0.761963,0.348633,0.54126
17:40:20,0.48291,0.029785,0.650391
17:40:20,0.365479,-0.368408,0.795166
17:40:20,0.359863,-0.654541,0.837158
17:40:20,0.441162,-0.737061,0.77124
17:40:20,0.52417,-0.558838,0.710449
17:40:20,0.59668,-0.276611,0.700684
17:40:20,0.617676,-0.098145,0.703125
17:40:20,0.588379,-0.109863,0.700684
17:40:20,0.575439,-0.276123,0.708252
17:40:20,0.578125,-0.461426,0.73877
17:40:20,0.575928,-0.530273,0.759766
17:40:20,0.592285,-0.456543,0.725098
17:40:20,0.576416,-0.32666,0.697021
17:40:20,0.524414,-0.246826,0.701172
17:40:20,0.514404,-0.258789,0.711182
17:40:20,0.54126,-0.323486,0.714844
17:40:20,0.582275,-0.38623,0.699463
17:40:20,0.623291,-0.412354,0.708984
17:40:20,0.617432,-0.371582,0.716553
17:40:20,0.594482,-0.314697,0.700928
17:40:20,0.604736,-0.3125,0.703613
17:40:20,0.573975,-0.335449,0.699951
17:40:20,0.580322,-0.362793,0.687988
17:40:20,0.594971,-0.357666,0.704346
17:40:20,0.59375,-0.341553,0.703125
17:40:20,0.593506,-0.327393,0.702881
17:40:20,0.59375,-0.327881,0.703125
17:40:20,0.608154,-0.312988,0.719971
17:40:20,0.623779,-0.310547,0.658691
17:40:20,0.626221,-0.339111,0.682129
17:40:20,0.613037,-0.359131,0.702881
17:40:20,0.595947,-0.350342,0.688721
17:40:20,0.593018,-0.318359,0.699219
