Time,Accel-X (g), Accel-Y (g), Accel-Z (g)
15:40:45,0.066895,-1.525391,-1.78418
15:40:45,2.025391,-2.128662,0.765625
15:40:45,4.311279,-4.530273,2.149414
15:40:45,3.976318,-4.164307,-0.378174
15:40:45,2.7771,-3.010742,-0.800293
15:40:45,1.818848,-1.216553,-0.205078
15:40:45,2.463379,-0.127197,0.458984
15:40:45,1.200195,0.669434,-0.960693
15:40:45,1.703613,2.208008,-1.1875
15:40:45,1.118164,2.141113,-0.714111
15:40:45,0.391846,1.102051,0.261719
15:40:45,0.365234,0.682617,0.705566
15:40:45,0.350586,0.532715,0.601807
15:40:45,0.303955,0.306885,0.540039
15:40:45,0.303467,0.071289,0.528564
15:40:45,0.331787,-0.149414,0.509766
15:40:45,0.418457,-0.318848,0.523438
15:40:45,0.522705,-0.419189,0.505615
15:40:45,0.799316,-0.553223,0.678711
15:40:45,1.292236,-0.654297,0.670898
15:40:45,1.593506,-0.529541,0.103271
15:40:45,1.585449,-0.312012,-0.049072
15:40:45,1.327148,-0.168213,0.272461
15:40:45,0.809082,-0.070557,0.358643
15:40:45,0.67041,0.030762,0.532715
15:40:45,0.605713,0.123535,0.506104
15:40:45,0.598877,0.222168,0.44751
15:40:45,0.694336,0.250244,0.447266
15:40:45,0.843018,0.191895,0.379395
15:40:45,0.909668,0.069824,0.299316
15:40:45,0.937256,-0.046143,0.452881
15:40:45,0.985352,-0.149902,0.375244
15:40:45,0.91333,-0.2146,0.449707
15:40:45,0.898193,-0.224854,0.409424
15:40:45,0.813477,-0.172119,0.430176
15:40:45,0.898193,-0.11499,0.468262
15:40:45,0.851318,-0.024658,0.308594
15:40:45,0.715576,0.028076,0.522461
15:40:45,0.714844,0.12085,0.513428
15:40:45,0.981689,0.045898,0.341064
15:40:45,0.968506,0.05542,0.233398
15:40:45,0.690186,0.09668,0.668213
15:40:45,0.520996,0.130371,0.872803
15:40:45,0.743652,0.067383,0.52124
15:40:45,0.940674,-0.075195,0.367432
15:40:45,1.018066,-0.158691,0.289307
15:40:45,0.969727,-0.037842,0.282715
15:40:45,0.455811,0.002686,0.952393
15:40:45,0.21582,-0.222656,1.802246
15:40:45,0.611572,-0.065674,1.469727
15:40:45,0.88501,0.169678,0.542725
15:40:45,1.085449,0.003906,0.982422
15:40:45,1.609375,-0.321533,1.226318
15:40:45,1.429199,-0.484619,1.369385
15:40:45,1.294189,-0.670654,0.919922
15:40:45,0.938477,-0.703369,-1.810303
15:40:45,7.999756,0.218994,1.586914
15:40:45,5.793701,0.866455,-1.380615
15:40:45,4.415527,4.161133,-0.766113
15:40:45,1.498779,2.496826,-0.305664
15:40:45,-0.008545,0.955322,0.43335
15:40:45,-0.042969,0.97583,0.688965
15:40:45,-0.16748,1.105957,0.36084
15:40:45,-0.418213,1.000977,0.036133
15:40:45,-0.587158,0.828857,0.318359
15:40:45,-0.820313,0.415527,0.820557
15:40:45,-0.759033,0.097656,0.655762
15:40:45,-0.22168,-0.072266,0.647217
15:40:45,0.240479,-0.196777,0.837402
15:40:45,0.432373,-0.274902,0.77124
15:40:45,0.495361,-0.324951,0.566162
15:40:45,0.405029,-0.415527,0.322998
15:40:45,1.511719,-0.19043,1.196533
15:40:45,2.803467,0.06543,1.143555
15:40:45,2.825684,0.052246,-1.401123
15:40:45,2.770508,0.295654,-1.775879
15:40:45,2.066406,0.378906,-0.134277
15:40:45,1.087402,0.090088,-0.235107
15:40:45,0.720215,-0.025879,-0.077881
15:40:45,1.001953,0.00415,0.172852
15:40:45,1.321533,0.064453,0.195068
15:40:45,2.840332,0.293945,0.610596
15:40:45,4.77124,0.847656,-0.043945
15:40:45,4.2854,1.001709,-1.692383
15:40:45,3.743896,1.959229,-1.523438
15:40:45,2.527588,2.028076,-1.979492
15:40:45,2.077393,1.233154,-2.761475
15:40:45,1.298828,0.25708,-3.296631
15:40:45,0.534424,-0.075928,-3.46582
15:40:45,0.102539,-0.295166,-3.149658
15:40:45,0.359375,0.057861,-2.995605
15:40:45,0.618896,1.012207,-3.664063
15:40:45,0.926025,1.787842,-4.723389
15:40:45,0.434326,1.194092,-1.929443
15:40:45,1.866455,0.327881,2.05542
15:40:45,0.916016,0.034912,2.028076
15:40:45,-0.640869,-0.517822,-0.843994
15:40:45,-0.638428,-1.261719,-2.381348
15:40:45,0.816406,-1.947754,0.325928
15:40:45,2.977051,-3.622314,2.712646
15:40:46,2.994141,-3.922852,1.559326
15:40:46,1.487305,-2.166992,-0.010986
15:40:46,1.832764,-1.30957,-0.305176
15:40:46,2.773193,-0.480713,-0.150635
15:40:46,2.424805,1.047363,-1.29834
15:40:46,2.914063,2.482422,-1.637207
15:40:46,1.26416,1.914551,-1.161865
15:40:46,0.760742,0.715332,0.543213
15:40:46,0.542236,0.356201,0.961426
15:40:46,0.322021,0.332275,0.620361
15:40:46,0.338379,0.266357,0.525635
15:40:46,0.261719,0.098633,0.564209
15:40:46,0.21875,-0.061035,0.593262
15:40:46,0.258789,-0.164063,0.651855
15:40:46,0.375732,-0.254639,0.702881
15:40:46,0.457031,-0.320557,0.667725
15:40:46,0.487793,-0.347656,0.602051
15:40:46,0.523193,-0.282715,0.659668
15:40:46,1.870117,-0.484619,0.165283
15:40:46,1.242432,-0.289063,-0.048828
15:40:46,0.860107,0.016113,0.568848
15:40:46,0.782471,0.261963,0.617188
15:40:46,0.693115,0.462158,0.295898
15:40:46,0.744385,0.5354,0.30957
15:40:46,0.827148,0.458252,0.404053
15:40:46,0.89502,0.222656,0.333496
15:40:46,0.866211,0.002686,0.406738
15:40:46,0.751221,-0.10083,0.609375
15:40:46,0.751221,-0.174805,0.631104
15:40:46,1.031982,-0.232422,0.437988
15:40:46,1.113525,-0.252197,0.262695
15:40:46,0.845459,-0.195557,0.406006
15:40:46,0.883789,-0.111084,0.522705
15:40:46,0.848877,-0.044189,0.453125
15:40:46,0.956543,0.004395,0.441406
15:40:46,0.850098,0.073975,0.360352
15:40:46,0.784668,0.075684,0.536621
15:40:46,0.874512,0.044922,0.433105
15:40:46,0.770752,0.044678,0.498047
15:40:46,0.64209,-0.000244,0.749512
15:40:46,1.018799,0.001709,0.443359
15:40:46,1.076416,-0.067383,0.003174
15:40:46,0.595947,0.082031,0.561279
15:40:46,0.579834,0.04248,1.145752
15:40:46,0.391846,0.020264,0.719482
15:40:46,0.864502,0.103027,0.219727
15:40:46,1.376709,0.030029,0.323242
15:40:46,0.723877,0.128662,0.91333
15:40:46,0.218994,0.344971,1.350586
15:40:46,0.815674,0.246582,1.367432
15:40:46,1.162842,-0.026123,1.032715
15:40:46,1.490723,-0.401367,0.83252
15:40:46,2.387695,-0.721924,1.074951
15:40:46,1.090332,-0.597656,0.92627
15:40:46,0.304199,-0.781494,-0.043701
15:40:46,5.253174,0.125732,0.125977
15:40:46,7.999756,1.666992,-0.294189
15:40:46,4.760254,2.486816,-1.47998
15:40:46,2.513672,2.876953,0.244629
15:40:46,0.326416,0.576416,0.888916
15:40:46,-0.024658,0.57373,0.792236
15:40:46,0.039795,0.892822,0.404785
15:40:46,-0.107666,0.906494,0.103271
15:40:46,-0.299561,0.790039,0.395752
15:40:46,-0.381348,0.521484,0.730469
15:40:46,-0.334229,0.287842,0.681641
15:40:46,-0.180664,0.071045,0.591553
15:40:46,0.039307,-0.087891,0.562744
15:40:46,0.201172,-0.222412,0.577148
15:40:46,0.366455,-0.316895,0.580566
15:40:46,0.485107,-0.365723,0.552246
15:40:46,0.605957,-0.42041,0.50415
15:40:46,0.878662,-0.407959,0.776367
15:40:46,2.429932,-0.272217,0.688965
15:40:46,2.446533,-0.08252,-0.505859
15:40:46,3.115723,0.299805,-0.84668
15:40:46,2.722656,0.192383,-0.695313
15:40:46,1.734863,-0.031494,-0.405029
15:40:46,1.238525,-0.125732,-0.106201
15:40:46,1.208496,-0.245361,0.266113
15:40:46,1.71875,-0.239746,0.470215
15:40:46,2.50293,0.024658,0.262207
15:40:46,3.741211,0.519043,-0.662109
15:40:46,4.367188,1.341797,-1.739258
15:40:46,3.599365,2.561035,-2.206299
15:40:46,2.496826,3.167969,-3.106201
15:40:46,1.180664,2.276367,-4.032227
15:40:46,0.413086,0.94458,-4.133301
15:40:46,-0.178467,0.016602,-4.16748
15:40:46,0.046631,-0.108398,-3.981689
15:40:46,0.867676,-0.154541,-3.584717
15:40:46,0.393555,-0.460205,-2.683105
15:40:46,-0.200195,0.060791,-1.38916
15:40:46,2.543213,0.71875,1.708496
15:40:46,0.7854,0.024414,1.407715
15:40:46,0.095215,-0.358887,-0.40625
15:40:46,0.195068,-0.707031,-0.890869
15:40:46,1.641113,-0.923828,1.282227
15:40:46,2.6875,-1.328857,2.787598
15:40:46,2.508301,-1.621338,1.038818
15:40:47,5.303955,-0.201172,-1.918945
15:40:47,3.702148,-0.087646,-2.210938
15:40:47,2.606934,0.662842,-0.304443
15:40:47,1.355225,0.749023,0.190674
15:40:47,0.557861,0.520752,0.316162
15:40:47,0.462402,0.519043,0.615234
15:40:47,0.285889,0.500977,0.580566
15:40:47,0.21875,0.487793,0.563477
15:40:47,0.205322,0.418701,0.605225
15:40:47,0.239502,0.299561,0.574707
15:40:47,0.332764,0.145996,0.524414
15:40:47,0.375732,0.06543,0.552734
15:40:47,1.479492,-0.072021,0.769043
15:40:47,2.351563,-0.332764,0.347168
15:40:47,0.682373,-0.241211,-0.364502
15:40:47,0.938477,-0.029785,0.842773
15:40:47,0.638428,-0.037598,0.852051
15:40:47,0.465576,0.046387,0.357178
15:40:47,0.913574,0.179199,0.590088
15:40:47,1.001465,0.130127,0.250977
15:40:47,0.880859,0.239014,0.383789
15:40:47,0.749756,0.249756,0.5
15:40:47,0.822754,0.164795,0.471924
15:40:47,0.900879,-0.00293,0.404785
15:40:47,0.92041,-0.029785,0.490479
15:40:47,0.769043,-0.041504,0.496338
15:40:47,0.75415,-0.072754,0.412354
15:40:47,0.892334,-0.085449,0.445801
15:40:47,0.928467,-0.045166,0.5354
15:40:47,0.935547,-0.019531,0.337646
15:40:47,0.847168,-0.008545,0.489014
15:40:47,0.878906,0.023438,0.502441
15:40:47,0.889648,0.022461,0.277832
15:40:47,0.769043,0.020508,0.432373
15:40:47,0.780029,0.047363,0.545166
15:40:47,0.987793,0.023926,0.283936
15:40:47,0.789063,-0.002686,0.392578
15:40:47,0.503418,0.027588,0.777344
15:40:47,0.822998,0.065918,0.539307
15:40:47,1.053711,0.075439,0.143555
15:40:47,0.734863,0.019531,0.507813
15:40:47,0.396729,0.031738,0.996338
15:40:47,0.510254,0.12085,0.823975
15:40:47,0.640869,0.016113,0.5354
15:40:47,1.473145,0.008789,0.306885
15:40:47,0.703613,0.042725,0.526367
15:40:47,0.423096,0.278809,1.311279
15:40:47,0.603027,0.372314,1.467285
15:40:47,0.701172,0.178955,1.509033
15:40:47,1.619873,-0.26123,0.988525
15:40:47,2.278564,-0.67627,0.696289
15:40:47,1.249756,-0.479736,0.22998
15:40:47,3.54126,-0.520264,0.589111
15:40:47,7.631348,-1.45752,-0.052979
15:40:47,7.117188,-1.549072,0.468994
15:40:47,4.212158,-0.551514,1.360596
15:40:47,2.529053,1.667969,0.754883
15:40:47,0.856689,2.553955,-0.905273
15:40:47,-0.122803,2.103027,-0.858643
15:40:47,-0.215088,1.489014,0.311279
15:40:47,-0.122559,1.345703,0.65625
15:40:47,-0.270996,1.311523,0.348389
15:40:47,-0.372803,1.072021,0.384766
15:40:47,-0.32373,0.768555,0.637939
15:40:47,-0.263428,0.442139,0.598633
15:40:47,-0.041504,0.1875,0.504883
15:40:47,0.18457,0.020264,0.532959
15:40:47,0.339844,-0.088135,0.494385
15:40:47,0.429199,-0.164307,0.418457
15:40:47,0.54248,-0.157471,0.519531
15:40:47,1.837646,0.069336,0.984375
15:40:47,4.009521,0.090332,0.498535
15:40:47,1.511475,-0.140625,-1.800537
15:40:47,2.124023,0.673584,-0.132324
15:40:47,1.183838,0.42627,0.553467
15:40:47,0.983154,0.422363,0.131348
15:40:47,1.200928,0.455811,0.128418
15:40:47,2.328857,0.227295,-0.133789
15:40:47,2.459473,-0.046875,-0.341797
15:40:47,2.719238,-0.018066,-0.180664
15:40:47,3.407715,0.077881,-0.236084
15:40:47,3.874268,0.932129,-0.642578
15:40:47,3.452148,2.431152,-1.562988
15:40:47,2.744141,3.592285,-3.140381
15:40:47,2.387207,2.345459,-4.062012
15:40:47,1.289063,0.608643,-4.13501
15:40:47,-0.336914,-0.087646,-3.826904
15:40:47,-0.910645,-0.262207,-3.519043
15:40:47,-0.901855,-0.396484,-4.053467
15:40:47,-1.197998,0.075684,-4.725586
15:40:47,1.80542,0.808105,-1.176025
15:40:47,3.891602,-0.077393,2.004395
15:40:47,0.651855,-1.189697,-1.157471
15:40:47,0.175293,-1.711182,-1.917969
15:40:47,3.795166,-3.539795,1.474854
15:40:47,5.158203,-3.80835,1.614014
15:40:47,2.937256,-1.680176,0.552734
15:40:47,1.38623,0.007813,-1.389648
15:40:47,2.959717,1.070313,-0.380127
15:40:47,1.699463,1.169678,-1.044922
15:40:48,1.187256,0.908691,-0.158936
15:40:48,0.80835,0.510254,0.567627
15:40:48,0.485107,0.382813,0.530518
15:40:48,0.40625,0.312744,0.499756
15:40:48,0.392578,0.226563,0.606201
15:40:48,0.347168,0.110596,0.583984
15:40:48,0.332031,-0.011719,0.534668
15:40:48,0.345703,-0.106689,0.521729
15:40:48,1.280518,-0.029785,0.816406
15:40:48,1.409668,-0.251465,0.036133
15:40:48,0.973877,-0.259766,0.169922
15:40:48,0.79248,-0.111816,0.728027
15:40:48,0.585938,0.003418,0.599365
15:40:48,0.841553,0.066406,0.432617
15:40:48,0.961914,0.076172,0.392578
15:40:48,0.854004,0.154297,0.37915
15:40:48,0.799072,0.236328,0.436279
15:40:48,0.803467,0.18457,0.449463
15:40:48,0.854004,0.083984,0.437012
15:40:48,0.837158,0.014648,0.476074
15:40:48,0.820313,-0.038086,0.500977
15:40:48,0.8479,-0.086426,0.485596
15:40:48,0.908447,-0.114502,0.467041
15:40:48,0.890137,-0.080566,0.442383
15:40:48,0.845459,-0.033203,0.496826
15:40:48,0.862061,-0.01123,0.488037
15:40:48,0.798096,-0.017578,0.44043
15:40:48,0.862305,-0.034668,0.505127
15:40:48,0.848389,-0.046387,0.473389
15:40:48,0.903564,-0.031982,0.376221
15:40:48,0.796875,-0.062256,0.500244
15:40:48,0.906738,-0.017334,0.42334
15:40:48,0.78125,-0.000732,0.437256
15:40:48,0.66333,-0.000977,0.663818
15:40:48,0.687744,0.014893,0.696045
15:40:48,0.623535,0.00293,0.654297
15:40:48,0.692383,-0.006592,0.630615
15:40:48,0.822266,0.035156,0.429199
15:40:48,0.954346,0.033447,0.298584
15:40:48,0.77124,0.123291,0.590576
15:40:48,0.830811,0.141357,0.766113
15:40:48,0.800537,0.173096,0.92749
15:40:48,0.584473,0.350586,1.130859
15:40:48,-0.193115,0.398193,0.716064
15:40:48,1.395508,0.042725,1.282471
15:40:48,2.103271,-0.209229,1.696289
15:40:48,0.750488,-0.22168,0.86084
15:40:48,0.962158,-0.246094,0.765869
15:40:48,0.665771,-0.342773,0.092041
15:40:48,3.956543,0.34082,-0.85083
15:40:48,7.999756,2.250732,-0.648193
15:40:48,5.995605,2.627686,-0.668945
15:40:48,2.813721,2.015625,1.145508
15:40:48,1.185303,0.584229,1.430908
15:40:48,0.232422,0.4021,0.735107
15:40:48,0.075195,0.590576,0.312012
15:40:48,0.11792,0.573242,0.422607
15:40:48,-0.034912,0.480225,0.376221
15:40:48,-0.078369,0.365234,0.493652
15:40:48,-0.027344,0.161865,0.721191
15:40:48,0.12915,-0.037354,0.749023
15:40:48,0.282715,-0.153076,0.774414
15:40:48,0.411377,-0.237793,0.690674
15:40:48,0.487793,-0.264893,0.560303
15:40:48,0.040283,-0.253174,0.312744
15:40:48,4.244385,-0.344727,1.106689
15:40:48,2.139404,-0.364746,-0.913574
15:40:48,1.326172,-0.047363,-0.808594
15:40:48,1.45166,0.121338,0.492676
15:40:48,0.952637,0.224121,0.44751
15:40:48,1.711182,0.164551,0.026367
15:40:48,2.129395,0.11377,-0.079346
15:40:48,1.774414,0.314453,-0.023438
15:40:48,1.598145,0.241699,-0.111084
15:40:48,1.788818,-0.204346,-0.083984
15:40:48,2.302734,-0.384521,0.149658
15:40:48,3.119141,-0.13623,0.164795
15:40:48,3.800537,0.37207,-0.187744
15:40:48,3.994629,1.61084,-1.092041
15:40:48,3.509277,2.948975,-2.651611
15:40:48,2.773193,2.559082,-4.077637
15:40:48,1.725098,0.901611,-4.421143
15:40:48,0.591797,0.042969,-4.028076
15:40:48,-0.060791,-0.303955,-3.574219
15:40:48,0.392578,-0.43042,-3.011719
15:40:48,-0.48877,-0.036865,-2.964111
15:40:48,-1.246826,0.329102,-3.79248
15:40:48,0.737061,1.442383,-0.72583
15:40:48,2.513916,1.040039,2.360107
15:40:48,0.63623,-0.108643,0.570801
15:40:48,-0.224854,-0.808594,-1.780762
15:40:48,0.284668,-0.857666,-1.383301
15:40:48,4.922119,-3.879395,2.442627
15:40:48,3.545654,-3.581055,0.239746
15:40:48,2.532227,-1.975342,-0.0625
15:40:48,2.824707,-0.581299,0.512451
15:40:48,2.046875,0.772705,-0.816895
15:40:48,2.444824,2.204834,-1.322266
15:40:48,1.762939,1.99292,-0.749268
15:40:48,0.591553,0.760986,0.216553
15:40:49,0.692627,0.380859,0.762695
15:40:49,0.530762,0.19458,0.605469
15:40:49,0.446289,0.009277,0.526123
15:40:49,0.397949,-0.172852,0.503906
15:40:49,0.431152,-0.311035,0.563965
15:40:49,0.477783,-0.362305,0.562744
15:40:49,1.294678,-0.421387,0.664795
15:40:49,2.772217,-0.484619,0.726074
15:40:49,0.492676,-0.352051,0.003662
15:40:49,0.96167,-0.127197,0.750732
15:40:49,0.668457,0.088135,0.399658
15:40:49,0.69043,0.211182,0.39209
15:40:49,0.765869,0.281738,0.452881
15:40:49,0.77832,0.355713,0.332764
15:40:49,0.856689,0.397217,0.309082
15:40:49,0.818115,0.2771,0.364014
15:40:49,0.796875,0.139893,0.421143
15:40:49,0.942871,0.018066,0.376953
15:40:49,0.862305,-0.114014,0.407715
15:40:49,0.803711,-0.172119,0.533203
15:40:49,0.846924,-0.160156,0.495361
15:40:49,0.831299,-0.174805,0.48291
15:40:49,0.943359,-0.142334,0.447998
15:40:49,0.955322,-0.07251,0.415283
15:40:49,0.880127,-0.013672,0.36499
15:40:49,0.875244,0.003418,0.354736
15:40:49,0.863281,0.009521,0.367432
15:40:49,0.823486,0.017578,0.359131
15:40:49,0.804932,-0.028076,0.448486
15:40:49,0.885498,-0.067383,0.462158
15:40:49,0.846924,-0.082031,0.51001
15:40:49,0.706299,-0.10376,0.723633
15:40:49,0.998291,-0.043701,0.405273
15:40:49,1.0625,-0.041504,0.160156
15:40:49,0.562012,-0.10498,0.840576
15:40:49,0.578857,-0.073975,1.004883
15:40:49,0.691162,0.013428,0.35083
15:40:49,0.889404,-0.080811,0.366211
15:40:49,0.833008,-0.002197,0.53833
15:40:49,0.650879,0.189941,0.855713
15:40:49,0.492432,0.167725,1.334717
15:40:49,0.236328,0.388184,1.265869
15:40:49,0.984863,0.225586,1.105713
15:40:49,0.990479,0.034668,0.908691
15:40:49,1.838623,-0.392334,1.259766
15:40:49,1.576904,-0.353027,0.794922
15:40:49,-0.684814,-0.083252,-0.115723
15:40:49,5.42627,-0.507568,-0.544678
15:40:49,7.999756,0.298584,-0.169922
15:40:49,6.520508,3.923584,-0.213867
15:40:49,3.800049,5.009033,-0.38501
15:40:49,1.237549,2.36377,0.400146
15:40:49,0.1875,0.50415,1.138916
15:40:49,0.176025,0.320313,1.030518
15:40:49,0.207275,0.258545,0.433105
15:40:49,0.03418,0.018066,-0.070557
15:40:49,-0.068359,-0.298096,0.036377
15:40:49,-0.030518,-0.549561,0.408691
15:40:49,0.044678,-0.71875,0.522949
15:40:49,0.207764,-0.850586,0.497803
15:40:49,0.354736,-0.902832,0.56543
15:40:49,0.537842,-0.964355,0.571777
15:40:49,0.656738,-0.948486,0.518555
15:40:49,1.20752,-0.919189,0.635254
15:40:49,3.09668,-0.864014,0.75
15:40:49,1.409424,-0.539063,-1.226807
15:40:49,1.666504,0.05542,-0.136475
15:40:49,1.301025,0.366699,0.204834
15:40:49,1.238037,0.807861,-0.319824
15:40:49,1.537109,1.165039,-0.298584
15:40:49,1.523438,1.167969,-0.186279
15:40:49,1.762939,1.026611,0
15:40:49,2.150146,0.647217,-0.065674
15:40:49,2.601807,0.310547,0.102051
15:40:49,3.032227,0.479736,0.078125
15:40:49,3.439941,1.188721,-0.282715
15:40:49,3.641357,1.89209,-0.913818
15:40:49,3.641113,2.296875,-1.874512
15:40:49,2.377197,1.961426,-3.116455
15:40:49,2.041016,0.844971,-3.510498
15:40:49,1.385498,0.205078,-4.319092
15:40:49,-0.629883,0.093506,-4.803955
15:40:49,-1.151855,-0.067627,-3.856689
15:40:49,-1.29541,0.060059,-4.314941
15:40:49,-1.539307,0.157471,-4.100342
15:40:49,1.852783,0.303711,0.918213
15:40:49,3.962646,0.270996,3.354004
15:40:49,-0.100586,-0.773438,-1.312012
15:40:49,1.140625,-1.03125,-0.752197
15:40:49,3.900879,-1.209717,2.775879
15:40:49,3.48999,-0.726807,-1.00293
15:40:49,7.770508,-0.020264,-1.939209
15:40:49,1.669678,-0.626709,-0.834473
15:40:49,2.739502,1.138672,-0.138916
15:40:49,0.934082,0.592529,-0.014648
15:40:49,0.543701,0.413086,0.399414
15:40:49,0.523438,0.376221,0.633545
15:40:49,0.391357,0.378662,0.550537
15:40:49,0.349121,0.343018,0.467529
15:40:49,0.414551,0.268555,0.538574
15:40:50,0.55542,0.208252,0.513184
15:40:50,0.780273,0.232178,0.442383
15:40:50,1.179443,0.158691,0.268799
15:40:50,1.215088,-0.110352,-0.128906
15:40:50,1.044922,-0.20752,0.351807
15:40:50,0.838623,-0.192139,0.651855
15:40:50,0.665283,-0.235107,0.522949
15:40:50,0.936768,-0.200928,0.521973
15:40:50,1.042236,-0.101807,0.417725
15:40:50,0.869873,0.025879,0.393066
15:40:50,0.861328,0.167236,0.425781
15:40:50,0.832031,0.228516,0.352783
15:40:50,0.86084,0.242432,0.368164
15:40:50,0.832764,0.227051,0.367188
15:40:50,0.802734,0.155273,0.429688
15:40:50,0.796387,0.046143,0.477783
15:40:50,0.822998,-0.014893,0.466064
15:40:50,0.866699,-0.039063,0.44873
15:40:50,0.878174,-0.069336,0.436035
15:40:50,0.891602,-0.094727,0.436035
15:40:50,0.890381,-0.07666,0.422119
15:40:50,0.890869,-0.061279,0.436035
15:40:50,0.919678,-0.001709,0.331543
15:40:50,0.985596,0.011475,0.276123
15:40:50,0.901367,0.072021,0.408936
15:40:50,0.874023,0.078857,0.422852
15:40:50,0.900391,0.083496,0.270996
15:40:50,0.779785,0.042725,0.497803
15:40:50,0.955078,0.01709,0.512451
15:40:50,0.805908,0.014648,0.337646
15:40:50,0.576172,0.006348,0.664795
15:40:50,0.662109,0.05835,0.753662
15:40:50,0.729736,0.078857,0.622314
15:40:50,1.035645,0.042725,0.199219
15:40:50,0.937012,0.019287,0.141357
15:40:50,0.493896,0.037109,0.779541
15:40:50,0.607666,0.194336,1.119385
15:40:50,0.580078,0.35791,0.94873
15:40:50,0.439697,0.199707,1.224854
15:40:50,0.455566,0.129639,1.045166
15:40:50,0.663086,0.152588,0.428223
15:40:50,2.037109,-0.390869,1.313232
15:40:50,2.212891,-0.585938,1.20459
15:40:50,0.851563,-0.350342,0.752197
15:40:50,1.174805,-0.20459,0.428955
15:40:50,5.995361,-0.578613,0.300537
15:40:50,7.923828,-0.741211,0.2146
15:40:50,5.724121,2.400391,0.076172
15:40:50,3.575439,4.901855,-0.084229
15:40:50,1.06665,2.695801,-0.166748
15:40:50,-0.143311,0.839844,0.676025
15:40:50,0.003906,0.721436,1.050049
15:40:50,0.060791,0.749268,0.609619
15:40:50,-0.192383,0.763672,0.095215
15:40:50,-0.354492,0.573242,0.303223
15:40:50,-0.331055,0.343994,0.678711
15:40:50,-0.251953,0.17334,0.645752
15:40:50,-0.02832,0.039551,0.63623
15:40:50,0.226074,-0.070068,0.729248
15:40:50,0.372803,-0.062256,0.702881
15:40:50,0.425049,0.016602,0.598145
15:40:50,0.460449,0.115723,0.592529
15:40:50,1.464844,0.855469,0.758301
15:40:50,2.089355,1.712158,-0.052734
15:40:50,2.415771,1.663086,-1.084717
15:40:50,2.387207,0.920898,-0.784424
15:40:50,1.333252,0.288818,0.171631
15:40:50,1.286377,0.218018,0.657959
15:40:50,1.548096,0.30127,0.056885
15:40:50,2.345459,0.352051,-0.185547
15:40:50,2.093262,0.142578,0.005615
15:40:50,3.077881,0.285889,0.596191
15:40:50,3.90918,0.757568,-0.013672
15:40:50,3.629395,1.652588,-0.856445
15:40:50,3.151367,2.429932,-1.494385
15:40:50,2.819336,2.289795,-2.186279
15:40:50,2.410889,1.165527,-2.885498
15:40:50,1.850342,0.332031,-3.218994
15:40:50,1.129883,-0.106201,-3.294922
15:40:50,0.434082,-0.470215,-3.263916
15:40:50,0.541016,-0.185059,-3.471436
15:40:50,1.12085,-0.011963,-3.499023
15:40:50,-0.454102,0.191406,-3.506592
15:40:50,-1.221191,0.265869,-2.459717
15:40:50,1.757324,0.851318,2.048828
15:40:50,1.735107,0.451172,3.009277
15:40:50,-0.085693,-0.013916,-0.4729
15:40:50,-0.196533,-0.270752,-1.755127
15:40:50,1.367432,-0.635742,0.637451
15:40:50,3.153564,-1.04248,1.967529
15:40:50,4.291992,-1.40918,0.436279
15:40:50,4.94751,0.074707,-2.529541
15:40:50,4.287598,1.464355,-3.121826
15:40:50,2.672119,0.366211,-0.449463
15:40:50,1.392822,-0.239502,0.665283
15:40:50,0.498535,-0.168213,0.591064
15:40:50,0.597412,-0.14624,0.94043
15:40:50,0.322021,-0.094727,0.611084
15:40:50,0.164307,-0.044922,0.38501
15:40:50,0.232422,0.006348,0.666504
15:40:51,0.280762,0.001953,0.814941
15:40:51,0.234375,0.015625,0.658691
15:40:51,0.286621,-0.002197,0.623779
15:40:51,0.375488,-0.047119,0.640137
15:40:51,0.433594,-0.091797,0.567383
15:40:51,0.485596,-0.108398,0.491211
15:40:51,0.560303,-0.124023,0.442383
15:40:51,1.663574,0.029785,0.676514
15:40:51,1.47583,0.112061,-0.125488
15:40:51,1.75293,0.284424,-0.085693
15:40:51,1.325928,0.212402,0.147217
15:40:51,0.806152,0.085693,0.397949
15:40:51,0.697754,0.036865,0.611816
15:40:51,0.596191,0.013916,0.579346
15:40:51,0.487793,0.034912,0.503662
15:40:51,0.681152,0.039063,0.562012
15:40:51,0.726318,0.03125,0.533936
15:40:51,0.806152,0.079346,0.516357
15:40:51,1.30542,0.082275,0.349854
15:40:51,1.288086,-0.019775,0.210205
15:40:51,0.874756,-0.058594,0.452637
15:40:51,0.801025,-0.044434,0.488525
15:40:51,0.828857,-0.117188,0.406006
15:40:51,1.072754,-0.149658,0.476563
15:40:51,0.88623,-0.131592,0.401855
15:40:51,0.964111,-0.079346,0.367188
15:40:51,0.87793,-0.038086,0.276367
15:40:51,0.847656,-0.002686,0.529785
15:40:51,0.797119,0.06665,0.441162
15:40:51,0.866211,0.045898,0.525146
15:40:51,0.936523,0.048096,0.325684
15:40:51,0.803955,0.139404,0.350342
15:40:51,0.634766,0.100098,0.68457
15:40:51,0.62085,0.035645,0.955566
15:40:51,0.614258,0.054688,0.738037
15:40:51,0.969727,-0.03418,0.492432
15:40:51,1.063965,-0.150391,0.078125
15:40:51,0.873779,-0.05542,0.603271
15:40:51,0.513184,0.240723,1.422119
15:40:51,0.322998,0.442383,1.421143
15:40:51,0.313232,0.388184,1.050537
15:40:51,1.311768,-0.10791,0.841064
15:40:51,2.203125,-0.72876,1.022461
15:40:51,1.752686,-0.790527,0.92334
15:40:51,0.072266,-0.743652,-0.155029
15:40:51,4.185059,-0.348633,1.120605
15:40:51,7.999756,0.94873,0.786133
15:40:51,6.328613,3.517578,-2.47876
15:40:51,3.644531,4.29248,-1.417236
15:40:51,0.876709,1.192139,0.624512
15:40:51,-0.043945,0.055176,1.184326
15:40:51,0.140381,0.362061,0.400146
15:40:51,-0.266357,0.35498,-0.404541
15:40:51,-0.801514,-0.114502,-0.061523
15:40:51,-1.643311,-1.250977,1.6604
15:40:51,-1.692139,-0.994141,0.618896
15:40:51,0.06665,-0.351074,0.574463
15:40:51,0.61084,-0.310791,0.873779
15:40:51,0.759277,-0.312988,0.524658
15:40:51,1.000488,-0.271484,0.273193
15:40:51,1.354248,-0.200928,0.35376
15:40:51,1.646973,-0.095215,0.335693
15:40:51,1.781738,-0.141846,0.05127
15:40:51,1.863037,-0.352783,-0.194336
15:40:51,1.615234,-0.659912,0.071533
15:40:51,1.413086,-0.845703,0.247314
15:40:51,1.558838,-0.818848,0.353271
15:40:51,1.822754,-0.565918,0.236084
15:40:51,1.986816,-0.283936,0.098389
15:40:51,2.110352,-0.11084,0.061035
15:40:51,2.415771,-0.063721,0.226074
15:40:51,2.912598,-0.031006,0.403809
15:40:51,3.558105,0.221924,0.98877
15:40:51,3.137939,0.55127,0.636719
15:40:51,3.501221,1.939209,-1.970947
15:40:51,3.465576,3.661133,-4.874512
15:40:51,0.420898,3.002197,-5.59668
15:40:51,-0.287842,1.199707,-4.012695
15:40:51,-0.55835,-0.029541,-3.481445
15:40:51,0.215576,-0.091309,-3.905273
15:40:51,1.583008,-0.13623,-3.61377
15:40:51,1.328369,-0.10083,-2.476563
15:40:51,0.168213,0.065918,-0.837646
15:40:51,1.926514,0.503174,1.566162
15:40:51,0.095459,0.071289,1.079346
15:40:51,-0.032471,-0.216553,0.017822
15:40:51,0.411621,-0.400146,0.506104
15:40:51,1.361084,-0.393799,2.159912
15:40:51,1.439697,-0.177979,1.897705
15:40:51,1.973877,-0.162354,0.847656
15:40:51,3.32373,0.85083,0.402832
15:40:51,3.070068,2.179443,-3.182617
15:40:51,3.894531,1.785889,-2.461914
15:40:51,2.686035,0.248291,-0.594727
15:40:51,1.273193,-0.427002,0.343506
15:40:51,0.842285,-0.423828,0.814209
15:40:51,0.513916,-0.487793,0.880371
15:40:51,0.159668,-0.503906,0.796143
15:40:51,0.152344,-0.413086,0.729492
15:40:51,0.27002,-0.300049,0.731445
15:40:52,0.244629,-0.178711,0.736816
15:40:52,0.225586,-0.075439,0.72998
15:40:52,0.209473,-0.003906,0.748291
15:40:52,0.240234,0.037109,0.697754
15:40:52,0.322021,0.075928,0.633057
15:40:52,0.383057,0.074463,0.566406
15:40:52,0.431641,0.026855,0.479248
15:40:52,0.75415,0.027344,0.580322
15:40:52,1.710205,0.080078,0.625488
15:40:52,1.625488,-0.187744,-0.784912
15:40:52,1.276123,0.246094,0.233643
15:40:52,1.076416,0.394531,0.722656
15:40:52,0.543457,0.311768,0.280029
15:40:52,0.624268,0.299805,0.537598
15:40:52,0.549561,0.213623,0.576904
15:40:52,0.55835,0.138428,0.583496
15:40:52,0.915039,0.067627,0.550049
15:40:52,0.868408,-0.046875,0.274414
15:40:52,0.856201,-0.058105,0.496582
15:40:52,0.936523,-0.024658,0.452148
15:40:52,0.885498,-0.00708,0.38623
15:40:52,0.74707,0.010498,0.568115
15:40:52,0.942383,0.076904,0.42749
15:40:52,0.976318,0.149414,0.197998
15:40:52,0.711914,0.136719,0.515137
15:40:52,0.592285,0.152344,0.713623
15:40:52,0.886475,0.156494,0.448242
15:40:52,1.085938,0.106201,0.144775
15:40:52,0.72168,0.128418,0.423584
15:40:52,0.472168,0.156982,1.087402
15:40:52,0.419922,0.146729,0.867432
15:40:52,0.657959,0.107422,0.199951
15:40:52,1.389404,-0.00415,0.003418
15:40:52,0.987305,0.083008,0.139893
15:40:52,0.846191,0.318359,1.166504
15:40:52,0.701904,0.245605,1.491211
15:40:52,0.274658,0.258789,1.32959
15:40:52,0.208496,-0.101318,1.063232
15:40:52,0.697998,-0.217285,1.15625
15:40:52,1.578613,-0.348145,1.072754
15:40:52,1.549561,-0.446533,0.869629
15:40:52,1.404053,-0.67041,0.601074
15:40:52,1.418213,-1.063232,-1.165527
15:40:52,7.199463,-1.464844,0.770508
15:40:52,7.999756,2.330811,-1.826904
15:40:52,6.572754,4.369873,-2.838135
15:40:52,3.483643,2.134766,-0.798096
15:40:52,1.396729,0.157715,1.135986
15:40:52,0.515137,-0.060791,1.505127
15:40:52,0.152832,0.355957,0.439941
15:40:52,-0.362305,0.69751,-0.665283
15:40:52,-0.577148,0.824463,-0.356201
15:40:52,-0.760254,0.499512,0.9375
15:40:52,-1.319092,0.283936,0.843018
15:40:52,-0.829346,0.342285,0.322021
15:40:52,0.21167,0.19458,0.716553
15:40:52,0.376465,0.015869,0.71167
15:40:52,0.37793,-0.048828,0.448975
15:40:52,0.445068,-0.063721,0.372314
15:40:52,0.65332,-0.035156,0.561035
15:40:52,1.590088,0.154297,0.842041
15:40:52,2.818115,0.524658,0.19165
15:40:52,2.429688,0.529297,-1.09668
15:40:52,3.06543,0.761475,-1.093506
15:40:52,1.94751,0.081787,-0.599609
15:40:52,1.244873,-0.063477,-0.276123
15:40:52,0.995605,-0.128418,-0.048828
15:40:52,1.164795,-0.171387,0.167969
15:40:52,1.924805,-0.203125,0.48291
15:40:52,2.830566,0.099854,0.257568
15:40:52,4.039551,1.203125,-0.250244
15:40:52,4.186035,2.730469,-1.70874
15:40:52,3.612061,3.659668,-3.003662
15:40:52,2.246338,2.803711,-3.248535
15:40:52,1.009766,1.16333,-3.087158
15:40:52,0.331055,0.235596,-3.424561
15:40:52,0.092773,-0.006836,-4.059814
15:40:52,0.400146,-0.227295,-3.675293
15:40:52,0.210205,-0.110596,-3.1875
15:40:52,-0.884766,0.273193,-4.002197
15:40:52,-1.127441,0.736572,-3.338623
15:40:52,1.187012,0.911865,0.790771
15:40:52,2.092773,0.216064,2.714111
15:40:52,0.334961,-0.597412,-0.004639
15:40:52,0.74707,-0.67334,-0.57373
15:40:52,2.733887,-0.865479,1.782959
15:40:52,5.808838,-0.601074,0.957031
15:40:52,7.049805,0.743652,-2.553955
15:40:52,1.72583,0.680176,-3.074707
15:40:52,2.536133,1.072021,0.679932
15:40:52,0.719238,0.236572,0.581055
15:40:52,0.390869,0.216309,0.511963
15:40:52,0.469238,0.30249,0.64917
15:40:52,0.429932,0.292969,0.619629
15:40:52,0.280273,0.202148,0.515381
15:40:52,0.246826,0.114014,0.575439
15:40:52,0.359619,0.053467,0.59668
15:40:52,0.4646,0.008301,0.540527
15:40:52,0.354004,-0.019531,0.501709
15:40:52,2.623047,-0.233643,0.608154
15:40:53,1.100098,-0.165771,-0.247559
15:40:53,0.942383,0.08667,0.491699
15:40:53,0.783936,0.156494,0.703857
15:40:53,0.473633,0.199463,0.436768
15:40:53,0.875732,0.244629,0.523438
15:40:53,1.012207,0.125244,0.324951
15:40:53,0.861572,0.100342,0.354492
15:40:53,0.750977,0.145752,0.529053
15:40:53,0.799072,0.105713,0.453613
15:40:53,0.867188,0.048584,0.452393
15:40:53,0.798584,0.035889,0.487793
15:40:53,0.782959,0.03125,0.503174
15:40:53,0.790527,-0.005615,0.50415
15:40:53,0.893311,-0.007813,0.375488
15:40:53,0.979736,-0.00415,0.297852
15:40:53,0.92041,0.035156,0.466309
15:40:53,0.935547,0.006836,0.539307
15:40:53,0.998047,-0.016113,0.350586
15:40:53,0.733154,0.000244,0.46875
15:40:53,0.861328,-0.022461,0.465088
15:40:53,0.947998,-0.078613,0.272461
15:40:53,0.766357,-0.029785,0.59668
15:40:53,0.997314,0.014893,0.488525
15:40:53,0.89209,0.001709,0.389893
15:40:53,0.70752,-0.016602,0.770996
15:40:53,0.797363,0.006348,0.723145
15:40:53,1.113037,0.058838,0.105469
15:40:53,0.727295,0.043213,0.43457
15:40:53,0.443359,-0.009033,1.044678
15:40:53,0.366943,0.070068,0.896729
15:40:53,0.470703,0.165039,0.38501
15:40:53,1.187256,0.065918,0.086914
15:40:53,0.854492,0.098145,0.593506
15:40:53,0.481201,0.371338,1.411621
15:40:53,0.768066,0.436768,1.728516
15:40:53,0.765381,0.163818,1.550537
15:40:53,0.825439,-0.078125,0.502441
15:40:53,1.342285,-0.128662,0.19873
15:40:53,0.73999,-0.154297,0.209473
15:40:53,1.366699,-0.63501,-0.651367
15:40:53,6.117432,0.138672,-0.374512
15:40:53,7.999756,3.491943,-2.0354
15:40:53,5.654785,4.537842,-3.533447
15:40:53,3.600586,2.246338,0.013916
15:40:53,0.906494,0.048096,1.018555
15:40:53,0.316895,0.178467,1.237793
15:40:53,0.155029,0.665771,0.188965
15:40:53,-0.325928,0.63623,-0.489746
15:40:53,-0.584473,0.518066,-0.29126
15:40:53,-0.577637,0.094971,0.421143
15:40:53,-1.885742,-0.830811,1.012939
15:40:53,-0.743408,-0.523926,0.157715
15:40:53,0.151611,-0.458252,0.679932
15:40:53,0.411621,-0.530518,0.776611
15:40:53,0.401367,-0.576172,0.449463
15:40:53,0.504883,-0.565186,0.341064
15:40:53,0.817139,-0.584229,0.754395
15:40:53,2.193115,-0.598389,1.065918
15:40:53,2.603027,-0.225342,-0.234619
15:40:53,3.00415,0.299072,-1.076904
15:40:53,2.855469,0.442383,-0.949707
15:40:53,1.935059,0.386475,-0.705322
15:40:53,1.370117,0.339355,-0.400146
15:40:53,0.93042,0.107666,-0.167236
15:40:53,0.702148,-0.133789,-0.051758
15:40:53,1.416748,-0.429932,0.378174
15:40:53,2.749023,-0.822998,0.775879
15:40:53,4.203613,-0.576172,0.293213
15:40:53,5.276855,0.668701,-0.960449
15:40:53,4.659424,2.291748,-2.899658
15:40:53,2.93335,2.686768,-4.236816
15:40:53,1.141602,1.641357,-4.136963
15:40:53,-0.242676,0.376221,-3.70874
15:40:53,-0.687256,0.202148,-3.84375
15:40:53,-0.780518,0.426758,-4.026855
15:40:53,-0.345703,0.833008,-3.800049
15:40:53,0.077148,1.453125,-4.051025
15:40:53,-0.160889,0.829834,-2.260498
15:40:53,3.177734,0.280518,1.866943
15:40:53,1.158447,-0.501465,1.769043
15:40:53,-0.396729,-0.840088,-0.934814
15:40:53,0.07666,-1.024658,-1.160156
15:40:53,1.947754,-1.336426,1.718506
15:40:53,2.274902,-2.17627,1.567627
15:40:53,1.292969,-2.402832,0.747559
15:40:53,4.21582,-1.716797,1.171875
15:40:53,4.438965,-1.081055,-1.653809
15:40:53,1.342285,-0.557129,-1.395264
15:40:53,1.980713,1.524658,0.651855
15:40:53,1.711426,2.486572,-0.575439
15:40:53,0.243896,1.503906,-0.727051
15:40:53,0.70459,0.854248,0.696777
15:40:53,0.491699,0.453857,0.655762
15:40:53,0.307373,0.173828,0.355225
15:40:53,0.507324,0.009033,0.498535
15:40:53,0.57666,-0.177246,0.532715
15:40:53,0.657959,-0.323486,0.52124
15:40:53,0.998535,-0.434814,0.619141
15:40:53,1.391602,-0.432129,0.357422
15:40:53,1.376709,-0.355469,0.081055
15:40:54,1.342285,-0.263184,0.307861
15:40:54,0.893066,-0.170166,0.390137
15:40:54,0.754395,-0.037354,0.48877
15:40:54,0.671387,0.048828,0.483887
15:40:54,0.715088,0.210205,0.441406
15:40:54,0.78833,0.334229,0.352295
15:40:54,0.852295,0.37793,0.296875
15:40:54,0.880127,0.337646,0.329834
15:40:54,0.821777,0.19873,0.39624
15:40:54,0.816406,0.050049,0.408447
15:40:54,0.85083,-0.040771,0.408203
15:40:54,0.937744,-0.111572,0.399414
15:40:54,1.004639,-0.133789,0.368164
15:40:54,1.050049,-0.107178,0.347412
15:40:54,0.968018,-0.087891,0.396973
15:40:54,0.791504,-0.052002,0.428467
15:40:54,0.739746,-0.027588,0.421875
15:40:54,0.82959,0.028809,0.419922
15:40:54,0.843018,0.053223,0.446533
15:40:54,0.817383,0.046387,0.367432
15:40:54,0.918945,0.094727,0.263916
15:40:54,0.865723,0.046143,0.423584
15:40:54,0.626465,-0.080811,0.590332
15:40:54,0.665527,-0.08374,0.482422
15:40:54,0.841064,0.061279,0.3479
15:40:54,0.861328,0.049561,0.548584
15:40:54,0.681641,-0.022461,0.601563
15:40:54,1.017334,0.0354,0.301025
15:40:54,0.949219,0.175293,-0.148926
15:40:54,0.727539,0.227051,0.736084
15:40:54,0.526123,0.027344,1.69165
15:40:54,0.469482,0.013672,1.786133
15:40:54,0.472412,0.12793,0.587402
15:40:54,0.565674,-0.021729,1.056396
15:40:54,2.183838,-0.325195,0.829102
15:40:54,1.181885,-0.353027,0.94165
15:40:54,0.624268,-0.327148,0.865723
15:40:54,1.408203,-0.570557,-0.421387
15:40:54,6.811279,-0.12793,-0.080078
15:40:54,7.624268,1.979736,-0.343262
15:40:54,5.172363,4.347656,-0.405762
15:40:54,2.127686,2.802734,0.428711
15:40:54,0.376953,0.715088,1.153076
15:40:54,0.218506,0.582764,1.159424
15:40:54,0.263672,0.663574,0.693604
15:40:54,0.149658,0.504883,0.254883
15:40:54,-0.012695,0.238037,0.214355
15:40:54,-0.013184,-0.06665,0.456055
15:40:54,0.091064,-0.272461,0.539307
15:40:54,0.257568,-0.392578,0.543457
15:40:54,0.439453,-0.468994,0.57251
15:40:54,0.56958,-0.507813,0.533936
15:40:54,0.63916,-0.503174,0.501221
15:40:54,1.552246,-0.522217,0.502197
15:40:54,3.787109,-0.495117,-0.210693
15:40:54,1.532227,-0.28125,-0.702881
15:40:54,1.526367,0.062256,0.308838
15:40:54,1.411377,0.431152,0.020996
15:40:54,1.716064,0.360107,-0.093018
15:40:54,1.738525,0.311768,-0.063965
15:40:54,1.621094,0.385498,-0.06958
15:40:54,1.726074,0.170166,0.012451
15:40:54,2.299561,0.091553,0.255859
15:40:54,3.156982,0.279785,0.267822
15:40:54,4.000488,0.615967,0.080566
15:40:54,3.898193,2.196533,-0.728516
15:40:54,3.356934,3.829102,-2.15918
15:40:54,1.973877,3.933838,-3.965088
15:40:54,1.160645,1.776123,-4.088379
15:40:54,0.7854,0.160889,-3.829346
15:40:54,0.460938,-0.228027,-4.059814
15:40:54,0.72168,-0.500488,-3.61792
15:40:54,1.41748,-0.459229,-2.929199
15:40:54,0.306152,-0.109619,-3.481201
15:40:54,-1.504883,0.135498,-3.365967
15:40:54,0.988525,0.636475,0.769043
15:40:54,3.072266,0.693848,3.675781
15:40:54,0.185791,-0.27124,0.475586
15:40:54,0.128174,-0.266113,-0.828125
15:40:54,1.573486,0.057861,1.604736
15:40:54,2.971436,1.026855,1.800781
15:40:54,3.026855,1.659912,-1.100098
15:40:54,3.785889,2.263672,-1.989014
15:40:54,3.207031,1.310791,-2.016602
15:40:54,2.410645,-0.03418,-0.282227
15:40:54,1.759766,-0.658936,0.690674
15:40:54,0.952148,-0.717773,0.501953
15:40:54,0.824707,-0.708008,0.652344
15:40:54,0.69751,-0.657471,0.789795
15:40:54,0.548828,-0.553467,0.598877
15:40:54,0.500977,-0.360596,0.531006
15:40:54,0.634277,-0.213135,0.569336
15:40:54,1.194092,-0.161865,0.311523
15:40:54,1.054199,-0.0896,0.166748
15:40:54,0.909668,0.085693,0.401123
15:40:54,0.791504,0.289795,0.511963
15:40:54,0.784424,0.46582,0.344482
15:40:54,0.888916,0.451172,0.262939
15:40:54,0.86499,0.377441,0.321289
15:40:54,0.810547,0.266602,0.407471
15:40:55,0.813965,0.104004,0.437256
15:40:55,0.841797,0.028809,0.435791
15:40:55,0.875488,-0.002686,0.442871
15:40:55,0.852051,0.016602,0.431641
15:40:55,0.811523,0.083252,0.448242
15:40:55,0.898193,0.088867,0.373047
15:40:55,0.935303,0.062988,0.338623
15:40:55,0.810791,0.076172,0.44165
15:40:55,0.905762,0.030273,0.411133
15:40:55,1.088379,-0.037109,0.280273
15:40:55,0.830566,-0.01123,0.425781
15:40:55,0.757813,0.013916,0.515137
15:40:55,1.003174,-0.048096,0.403564
15:40:55,0.9729,-0.07959,0.342285
15:40:55,0.796875,0.026367,0.468506
15:40:55,0.984375,-0.002197,0.331543
15:40:55,0.757568,0.070313,0.443359
15:40:55,0.825195,0.055664,0.540039
15:40:55,0.953613,0.01709,0.265625
15:40:55,0.674316,0.131836,0.582275
15:40:55,0.605225,0.149658,0.635986
15:40:55,1.019531,0.002686,0.271973
15:40:55,0.886475,-0.007324,0.371582
15:40:55,0.662598,0.018799,0.756836
15:40:55,0.430176,-0.119141,0.852051
15:40:55,0.920166,-0.039063,0.569336
15:40:55,1.015625,0.072021,0.71582
15:40:55,0.574707,-0.053955,1.553711
15:40:55,0.378174,0.140625,1.099121
15:40:55,0.862793,0.068848,0.598145
15:40:55,2.104492,-0.628418,1.251709
15:40:55,2.075684,-0.84375,0.926758
15:40:55,1.194824,-0.732422,1.047852
15:40:55,0.392334,-0.597412,0.335449
15:40:55,3.105713,-0.708984,0.0271
15:40:55,7.999756,0.075439,0.869873
15:40:55,5.241943,2.690918,-2.808105
15:40:55,4.855957,5.300293,-1.150635
15:40:55,1.645752,2.30957,0.182129
15:40:55,0.113525,0.384521,1.211914
15:40:55,0.219971,0.467529,1.012207
15:40:55,0.029541,0.515381,0.046875
15:40:55,-0.412109,0.490479,-0.410645
15:40:55,-0.513672,0.284424,0.316162
15:40:55,-0.523682,-0.096436,0.946045
15:40:55,-0.531982,-0.322266,0.69873
15:40:55,-0.083984,-0.340088,0.648438
15:40:55,0.321533,-0.396484,0.774902
15:40:55,0.455078,-0.446289,0.653809
15:40:55,0.54248,-0.470215,0.494873
15:40:55,0.567871,-0.480225,0.411377
15:40:55,1.946533,-0.384033,1.174072
15:40:55,2.588379,-0.030273,0.322266
15:40:55,2.629395,0.619629,-1.337158
15:40:55,2.570557,1.041992,-1.182373
15:40:55,1.717773,0.800049,-0.383789
15:40:55,1.206787,0.440674,0.040771
15:40:55,1.004639,0.349609,0.204102
15:40:55,1.083984,0.291016,0.231689
15:40:55,1.720459,0.348389,0.32959
15:40:55,2.772705,0.649414,0.18457
15:40:55,3.940918,1.122559,-0.623535
15:40:55,4.384766,1.437256,-1.86499
15:40:55,3.918701,2.244385,-1.940674
15:40:55,2.80249,2.411621,-2.595947
15:40:55,1.619873,1.711914,-3.703857
15:40:55,0.327148,0.690674,-4.074463
15:40:55,-0.407227,0.170898,-3.937012
15:40:55,-0.552734,-0.0271,-3.661133
15:40:55,0.569092,-0.009033,-3.349121
15:40:55,1.370361,0.678223,-3.300537
15:40:55,1.545166,1.745361,-3.936523
15:40:55,0.52417,1.124268,-1.170898
15:40:55,2.010742,0.149902,2.760498
15:40:55,0.467529,0.031494,2.258057
15:40:55,-0.912598,-0.406006,-1.62793
15:40:55,-0.730957,-1.182373,-0.833008
15:40:55,1.350098,-1.70166,2.422852
15:40:55,2.468262,-1.404297,2.105713
15:40:55,2.066406,-1.442871,1.083496
15:40:55,2.92334,-2.595947,0.337402
15:40:55,3.447021,-1.877197,-1.686279
15:40:55,3.77417,0.667969,-1.97998
15:40:55,3.19873,1.702881,-1.22998
15:40:55,1.028809,1.131836,-0.820068
15:40:55,0.711426,0.445557,0.683105
15:40:55,0.491699,0.375732,0.916748
15:40:55,0.172607,0.506836,0.559814
15:40:55,0.162354,0.615967,0.520996
15:40:55,0.164551,0.475342,0.587646
15:40:55,0.140381,0.300537,0.684814
15:40:55,0.18335,0.135986,0.668213
15:40:55,0.260254,-0.022217,0.636963
15:40:55,0.31958,-0.135742,0.624268
15:40:55,0.408691,-0.236328,0.624512
15:40:55,0.509766,-0.294922,0.595703
15:40:55,0.596436,-0.3125,0.519043
15:40:55,1.56543,-0.297119,0.917236
15:40:55,1.255615,-0.335205,-0.573242
15:40:55,1.408936,-0.12915,0.171875
15:40:56,1.012207,0.106934,0.438965
15:40:56,0.709961,0.147461,0.387207
15:40:56,0.683594,0.149414,0.530029
15:40:56,0.629883,0.165527,0.449707
15:40:56,0.731689,0.203857,0.384766
15:40:56,0.870117,0.109863,0.357422
15:40:56,1.0625,0.020508,0.369873
15:40:56,0.99585,-0.063965,0.296875
15:40:56,0.859375,-0.128662,0.394531
15:40:56,0.820557,-0.085693,0.512451
15:40:56,0.78833,-0.069092,0.503418
15:40:56,0.986328,-0.061768,0.329834
15:40:56,0.998535,0.015625,0.167969
15:40:56,0.748535,0.055908,0.584961
15:40:56,0.738037,0.050293,0.659668
15:40:56,0.835449,0.029297,0.387939
15:40:56,1.094727,-0.014404,0.157959
15:40:56,0.839355,0.038818,0.22583
15:40:56,0.586182,0.049805,0.874756
15:40:56,0.566406,0.069092,0.827148
15:40:56,0.716309,0.106445,0.521729
15:40:56,1.053955,0.010498,-0.081543
15:40:56,0.990479,-0.095459,0.405029
15:40:56,0.559326,0.151611,1.273926
15:40:56,0.36377,0.333252,1.559326
15:40:56,0.811523,0.143311,1.691406
15:40:56,0.833496,-0.025879,0.993896
15:40:56,2.76709,-0.515869,1.053467
15:40:56,2.083008,-0.658936,0.45752
15:40:56,0.55957,-0.518555,0.757324
15:40:56,0.62207,-0.929199,-0.429932
15:40:56,6.357422,0.967285,0.414063
15:40:56,7.463867,1.865967,-1.128906
15:40:56,5.151855,3.705078,-1.675293
15:40:56,2.634033,3.326416,-0.142578
15:40:56,0.399414,0.821533,0.813477
15:40:56,0.085205,0.373047,1.009521
15:40:56,0.212402,0.633789,0.50415
15:40:56,-0.052246,0.569336,-0.056152
15:40:56,-0.308105,0.292236,-0.188721
15:40:56,-0.300293,-0.049316,0.355469
15:40:56,-0.254883,-0.299561,0.499268
15:40:56,-0.153564,-0.483398,0.411377
15:40:56,0.072021,-0.603271,0.54834
15:40:56,0.290527,-0.693604,0.668457
15:40:56,0.441162,-0.724365,0.594238
15:40:56,0.578125,-0.713379,0.545654
15:40:56,0.777344,-0.669434,0.601807
15:40:56,1.081787,-0.692383,0.678223
15:40:56,2.186768,-0.796875,0.750244
15:40:56,2.727295,-0.45874,0.012695
15:40:56,2.844482,0.174805,-0.861328
15:40:56,2.856934,0.651855,-0.936768
15:40:56,2.005859,0.668701,-0.916748
15:40:56,1.49292,0.457275,-0.539063
15:40:56,1.238281,0.148926,-0.133057
15:40:56,1.825928,-0.132568,0.487061
15:40:56,3.300781,-0.054932,0.61499
15:40:56,4.496582,0.10376,-0.805176
15:40:56,4.403076,1.089355,-1.739014
15:40:56,3.07666,2.174316,-2.081299
15:40:56,1.539795,2.179688,-2.844971
15:40:56,0.7771,1.451172,-3.549316
15:40:56,0.327393,0.615723,-4.013428
15:40:56,-0.060547,0.141357,-4.091064
15:40:56,0.344727,0.434814,-3.594727
15:40:56,1.171143,1.31958,-3.466797
15:40:56,0.827881,1.962891,-3.747314
15:40:56,0.640137,1.405518,-1.860352
15:40:56,1.835693,0.162354,2.002441
15:40:56,0.348389,-0.260742,2.14624
15:40:56,-0.791016,-0.42334,-1.118652
15:40:56,-0.158691,-1.154053,-1.653564
15:40:56,1.251465,-1.626221,1.220947
15:40:56,2.955811,-2.414551,2.921875
15:40:56,2.313232,-2.677734,0.77832
15:40:56,2.287109,-2.814941,-0.556641
15:40:56,4.205811,-2.916504,0.045898
15:40:56,2.122314,-0.695557,-1.166748
15:40:56,3.233643,1.588379,-0.970215
15:40:56,1.87207,2.562988,-1.836914
15:40:56,0.887939,1.797119,-0.728027
15:40:56,0.565186,0.757568,0.830566
15:40:56,0.373535,0.491455,0.897461
15:40:56,0.263428,0.542725,0.527344
15:40:56,0.245361,0.46875,0.508789
15:40:56,0.177979,0.263184,0.619141
15:40:56,0.1521,0.064941,0.650146
15:40:56,0.238037,-0.073975,0.633789
15:40:56,0.357666,-0.1875,0.62085
15:40:56,0.443115,-0.281006,0.583984
15:40:56,0.378174,-0.34082,0.507568
15:40:56,1.384521,-0.384033,0.903076
15:40:56,1.907959,-0.398438,0.323242
15:40:56,0.974854,-0.280518,-0.302246
15:40:56,1.191895,0.021484,0.810059
15:40:56,0.870605,0.296875,0.244873
15:40:56,0.75415,0.34668,0.272461
15:40:56,0.790039,0.31665,0.440186
15:40:56,0.685547,0.220947,0.354736
15:40:57,0.774414,0.074219,0.47583
15:40:57,0.78833,-0.087158,0.442383
15:40:57,0.84668,-0.200439,0.520752
15:40:57,0.844971,-0.300537,0.530273
15:40:57,0.904541,-0.358643,0.484375
15:40:57,0.964844,-0.34668,0.513184
15:40:57,0.987793,-0.312988,0.537842
15:40:57,0.929688,-0.161621,0.439941
15:40:57,0.915039,0.005371,0.381836
15:40:57,0.973389,0.175781,0.372803
15:40:57,0.893066,0.234375,0.252441
15:40:57,0.841797,0.166748,0.429688
15:40:57,0.712402,0.045166,0.62915
15:40:57,0.560303,-0.005371,0.454102
15:40:57,0.693115,0.017334,0.416504
15:40:57,0.882568,-0.016846,0.669189
15:40:57,0.832764,-0.077148,0.770996
15:40:57,0.964111,-0.010498,0.429443
15:40:57,1.10498,0.081543,-0.156006
15:40:57,0.729004,-0.02002,0.223389
15:40:57,0.479492,0.060059,1.10083
15:40:57,0.543457,0.413574,1.234863
15:40:57,0.346436,0.457275,1.36792
15:40:57,0.511475,0.280029,1.216553
15:40:57,1.435791,-0.01123,0.86377
15:40:57,1.875,-0.282959,0.792969
15:40:57,0.788818,-0.207031,0.270264
15:40:57,2.271973,-0.233154,0.128174
15:40:57,7.999756,-0.628174,-0.910645
15:40:57,7.73291,0.510742,-0.116699
15:40:57,4.659668,3.884033,0.418457
15:40:57,2.428223,3.753174,0.202637
15:40:57,0.517822,1.668213,0.607666
15:40:57,0.209229,0.963379,1.075928
15:40:57,0.221191,0.85498,0.937256
15:40:57,0.160645,0.77417,0.572998
15:40:57,0.084229,0.580322,0.306641
15:40:57,-0.003418,0.279297,0.394287
15:40:57,-0.027832,-0.050049,0.467529
15:40:57,0.074951,-0.333984,0.449951
15:40:57,0.238037,-0.551758,0.558105
15:40:57,0.415771,-0.728027,0.645508
15:40:57,0.592041,-0.879639,0.620361
15:40:57,0.540283,-1.053223,0.604004
15:40:57,2.764404,-1.311768,0.941895
15:40:57,2.931152,-1.126953,-0.157715
15:40:57,1.165039,-0.505127,-0.746338
15:40:57,1.296387,-0.176514,0.335693
15:40:57,1.331787,0.065186,0.154785
15:40:57,1.845947,0.269043,-0.160156
15:40:57,1.854004,0.238525,-0.059326
15:40:57,1.886719,0.490967,-0.146973
15:40:57,1.915283,0.381836,-0.272217
15:40:57,2.003418,0.045654,-0.244385
15:40:57,2.311768,-0.227539,0.031006
15:40:57,2.938477,-0.243164,0.148926
15:40:57,3.519043,0.074219,-0.139648
15:40:57,3.912842,0.460205,-0.579346
15:40:57,3.895264,1.617188,-1.5896
15:40:57,2.896973,2.648926,-3.098145
15:40:57,1.349365,2.57251,-4.399902
15:40:57,0.178223,1.365967,-4.416748
15:40:57,-0.441162,0.488525,-3.831055
15:40:57,0.47998,0.040039,-3.601074
15:40:57,1.966797,-0.238037,-3.443359
15:40:57,-0.163574,-0.054932,-4.267822
15:40:57,0.509277,0.020752,-1.964844
15:40:57,1.863281,0.136719,1.81543
15:40:57,1.091064,-0.247559,2.94751
15:40:57,0.084961,-0.581787,0.373779
15:40:57,0.669189,-0.4646,0.482178
15:40:57,1.305908,-0.136475,2.223145
15:40:57,0.755371,0.159912,0.925781
15:40:57,1.289551,0.583984,-0.016846
15:40:57,3.291016,1.643311,0.5625
15:40:57,3.517822,2.80957,-1.526367
15:40:57,2.589111,2.194336,-2.921387
15:40:57,2.473145,0.141846,-0.288574
15:40:57,1.490234,-0.750488,0.458252
15:40:57,0.890869,-0.917969,0.446045
15:40:57,0.820313,-0.988525,0.609375
15:40:57,0.645996,-1.05127,0.707275
15:40:57,0.542236,-0.959229,0.723877
15:40:57,0.491943,-0.776855,0.705566
15:40:57,0.467773,-0.537109,0.568115
15:40:57,0.484863,-0.335205,0.529541
15:40:57,0.496094,-0.175537,0.500244
15:40:57,0.702637,-0.085938,0.518555
15:40:57,1.488281,-0.017578,0.124756
15:40:57,0.861084,0.102051,0.111572
15:40:57,0.957275,0.456543,0.468262
15:40:57,0.843994,0.668213,0.237793
15:40:57,0.769287,0.721924,0.173096
15:40:57,0.743408,0.572998,0.332764
15:40:57,0.673096,0.343262,0.402832
15:40:57,0.944336,0.101074,0.354004
15:40:57,1.04834,-0.095215,0.354736
15:40:57,0.874268,-0.183594,0.447754
15:40:57,0.835693,-0.188477,0.509766
15:40:57,0.803467,-0.205322,0.48584
15:40:58,0.961426,-0.226318,0.417236
15:40:58,1.050781,-0.171631,0.383545
15:40:58,0.883545,-0.05957,0.385742
15:40:58,0.875977,0.042969,0.37085
15:40:58,0.916748,0.093506,0.337158
15:40:58,0.98877,0.102295,0.311523
15:40:58,0.770508,0.104248,0.447021
15:40:58,0.795898,0.071533,0.550293
15:40:58,0.98999,0.054932,0.290527
15:40:58,0.781006,0.027832,0.399902
15:40:58,0.614258,0.031738,0.747314
15:40:58,0.717773,0.026611,0.658691
15:40:58,0.87085,-0.032715,0.480469
15:40:58,1.047607,-0.015869,0.09375
15:40:58,0.626465,0.123779,0.452148
15:40:58,0.624268,0.020264,0.874268
15:40:58,0.552979,-0.168945,1.190186
15:40:58,0.908203,0.13501,0.717041
15:40:58,0.658203,0.047363,1.193848
15:40:58,0.351318,0.172363,0.959961
15:40:58,0.576904,0.151855,1.041748
15:40:58,2.338379,-0.491211,1.368652
15:40:58,2.137207,-0.713135,1.107178
15:40:58,0.965332,-0.492432,0.870117
15:40:58,0.419678,-0.748535,-0.321289
15:40:58,5.552246,-0.13916,0.499268
15:40:58,7.886475,0.776611,-1.061035
15:40:58,5.441162,3.328369,-2.428467
15:40:58,3.15332,3.827637,-0.284912
15:40:58,0.453613,0.929932,0.797363
15:40:58,-0.02124,0.379883,1.093262
15:40:58,0.162354,0.745605,0.476563
15:40:58,-0.269287,0.881104,-0.110107
15:40:58,-0.605225,0.755127,-0.01001
15:40:58,-0.556885,0.553223,0.655518
15:40:58,-0.480469,0.306396,0.685791
15:40:58,-0.335449,0.110596,0.485596
15:40:58,-0.020264,-0.029785,0.577881
15:40:58,0.220215,-0.156494,0.642334
15:40:58,0.386475,-0.222412,0.5896
15:40:58,0.470703,-0.234619,0.546143
15:40:58,0.613037,-0.250732,0.515137
15:40:58,0.766602,-0.243408,0.554688
15:40:58,2.899658,0.367432,0.750977
15:40:58,2.289795,0.603271,-0.567627
15:40:58,2.942871,1.292725,-1.128418
15:40:58,2.307129,0.7229,-0.739014
15:40:58,1.721191,0.208008,-0.140381
15:40:58,1.548828,0.010986,0.111328
15:40:58,1.886719,-0.020508,0.132568
15:40:58,2.602539,0.196777,0.021484
15:40:58,3.852783,0.790527,-0.89209
15:40:58,3.893066,1.427734,-1.696777
15:40:58,3.190674,2.009521,-1.759277
15:40:58,3.046143,2.359131,-2.085693
15:40:58,2.67041,2.197754,-3.021729
15:40:58,1.55835,1.554932,-4.041748
15:40:58,0.129395,0.669922,-4.656494
15:40:58,-0.818604,0.069336,-4.366455
15:40:58,-1.004883,-0.116943,-3.796631
15:40:58,-1.29248,-0.02124,-4.163086
15:40:58,-1.407227,0.432129,-3.89917
15:40:58,1.351807,0.657471,-0.182617
15:40:58,4.395996,0.457764,3.550781
15:40:58,0.33252,-0.611328,-0.975342
15:40:58,1.542236,-0.997314,-1.427979
15:40:58,7.419189,-1.851318,2.063477
15:40:58,6.631104,-0.232666,-2.652832
15:40:58,3.449951,-0.128906,-1.121582
15:40:58,2.406738,0.900146,-0.168457
15:40:58,1.162109,0.589844,0.071045
15:40:58,0.764648,0.536621,0.616211
15:40:58,0.367188,0.576904,0.458984
15:40:58,0.310303,0.663574,0.38208
15:40:58,0.338379,0.658691,0.51001
15:40:58,0.324219,0.533691,0.501465
15:40:58,0.479004,0.426514,0.426025
15:40:58,0.687256,0.330078,0.394775
15:40:58,0.919189,0.253418,0.359863
15:40:58,1.745361,-0.081055,0.039551
15:40:58,1.453369,-0.34668,0.077881
15:40:58,0.871338,-0.298096,0.595947
15:40:58,0.834961,-0.284912,0.609375
15:40:58,0.638672,-0.361816,0.476563
15:40:58,0.865967,-0.291016,0.610352
15:40:58,0.999756,-0.111328,0.392822
15:40:58,0.886963,0.04126,0.283447
15:40:58,0.933838,0.217529,0.409912
15:40:58,0.827148,0.30957,0.263428
15:40:58,0.812012,0.305908,0.376709
15:40:58,0.76001,0.231689,0.403809
15:40:58,0.784912,0.147461,0.435059
15:40:58,0.825928,0.028809,0.390869
15:40:58,0.960449,-0.039795,0.415771
15:40:58,1.155273,-0.095947,0.312012
15:40:58,0.923584,-0.109375,0.405762
15:40:58,0.858398,-0.080078,0.375732
15:40:58,0.937012,-0.06665,0.394287
15:40:58,0.852539,-0.024902,0.308838
15:40:58,0.876709,0.019775,0.440186
15:40:59,0.794922,0.068604,0.375244
15:40:59,0.908936,0.087646,0.408691
15:40:59,0.92334,0.121826,0.282959
15:40:59,0.814941,0.107178,0.451416
15:40:59,0.848633,0.087891,0.459229
15:40:59,0.716309,0.049561,0.435059
15:40:59,0.66626,0.012695,0.66748
15:40:59,0.866211,0.033203,0.532471
15:40:59,0.986084,0.046387,0.191162
15:40:59,0.806885,0.01416,0.402588
15:40:59,0.545166,-0.02124,0.821289
15:40:59,0.56958,0.052979,0.727051
15:40:59,0.825195,0.229248,0.501465
15:40:59,0.705811,0.225342,0.841553
15:40:59,0.135986,0.236816,1.23999
15:40:59,0.337158,0.393066,1.333496
15:40:59,1.380371,0.081787,1.541504
15:40:59,1.77002,-0.074707,1.12915
15:40:59,1.337646,-0.289551,0.633789
15:40:59,0.731689,-0.097656,-0.486328
15:40:59,3.226074,-0.080566,-0.315918
15:40:59,7.999756,-0.347656,-0.001465
15:40:59,7.623047,1.515381,0.015137
15:40:59,4.828613,5.462891,-0.098389
15:40:59,1.738281,3.897949,-0.382568
15:40:59,-0.053955,1.247803,0.43335
15:40:59,-0.177734,0.690186,1.099121
15:40:59,0.04248,0.649658,0.965332
15:40:59,-0.197998,0.45166,0.069336
15:40:59,-0.352295,0.021729,-0.303955
15:40:59,-0.304199,-0.510498,0.041016
15:40:59,-0.80957,-1.286865,0.61377
15:40:59,-0.532471,-1.453857,0.670166
15:40:59,0.259033,-1.178467,0.729004
15:40:59,0.708252,-1.04126,0.87793
15:40:59,0.868652,-0.964844,0.630615
15:40:59,0.71875,-0.840332,0.469482
15:40:59,3.032959,-0.767578,0.772705
15:40:59,3.447021,-0.654785,-0.285645
15:40:59,1.192627,0.043213,-1.029053
15:40:59,2.008545,0.990723,0.020752
15:40:59,1.561523,1.479492,-0.513672
15:40:59,1.460693,1.592041,-0.614746
15:40:59,1.323242,0.832275,-0.081543
15:40:59,1.44043,0.337402,-0.148438
15:40:59,1.71875,-0.054688,-0.272949
15:40:59,2.324463,-0.328857,-0.21582
15:40:59,3.235352,-0.335693,-0.287109
15:40:59,4.206299,0.193848,-0.634277
15:40:59,4.665527,1.666504,-1.780029
15:40:59,3.784668,2.653076,-3.339844
15:40:59,2.286133,2.6521,-4.272949
15:40:59,0.598389,1.473389,-4.175537
15:40:59,-0.488525,0.461914,-4.200928
15:40:59,-0.685791,0.198975,-4.072998
15:40:59,-0.313477,0.104248,-3.495117
15:40:59,-1.119385,0.281982,-4.476318
15:40:59,-1.708984,0.35791,-3.375
15:40:59,3.166992,0.728516,2.18457
15:40:59,2.610596,-0.174316,2.155273
15:40:59,-0.416992,-0.791504,-1.363281
15:40:59,4.460205,-0.848877,1.963135
15:40:59,4.314209,-0.673828,1.091797
15:40:59,3.789307,0.504395,-2.185791
15:40:59,5.271484,0.892822,-1.457275
15:40:59,2.651123,0.206787,-0.707275
15:40:59,1.539307,-0.003418,0.300049
15:40:59,0.656738,-0.071045,0.540527
15:40:59,0.580811,-0.011963,0.849854
15:40:59,0.478027,-0.003906,0.673096
15:40:59,0.299316,0.04834,0.418213
15:40:59,0.309326,0.053223,0.55835
15:40:59,0.404053,-0.006836,0.64917
15:40:59,0.412109,0.001221,0.495605
15:40:59,0.759766,-0.040283,0.49585
15:40:59,2.375977,-0.237305,0.519287
15:40:59,0.542969,-0.069092,-0.118896
15:40:59,1.015625,0.091797,0.72876
15:40:59,0.552734,0.135498,0.497314
15:40:59,0.908936,0.221191,0.494629
15:40:59,0.855225,0.109375,0.318359
15:40:59,0.893311,0.091064,0.442627
15:40:59,0.791748,0.099609,0.4646
15:40:59,0.849121,0.063965,0.426025
15:40:59,0.888672,0.005371,0.424805
15:40:59,0.82666,0.020996,0.475586
15:40:59,0.835205,0.027832,0.47168
15:40:59,0.814697,-0.009766,0.42627
15:40:59,0.776855,-0.002441,0.450439
15:40:59,0.913086,0.029785,0.39624
15:40:59,0.999023,0.022949,0.380127
15:40:59,0.915283,0.022705,0.427979
15:40:59,0.841797,0.029785,0.427002
15:40:59,0.878418,0.003662,0.444336
15:40:59,0.901855,-0.032959,0.467773
15:40:59,0.845947,-0.047363,0.446045
15:40:59,0.861816,-0.02417,0.368652
15:40:59,0.834473,-0.014893,0.403809
15:40:59,0.921875,-0.008057,0.440918
15:40:59,0.919434,0.016357,0.348877
15:41:00,0.678711,-0.001953,0.620361
15:41:00,0.647705,0.001953,0.743408
15:41:00,0.831543,0.013672,0.448242
15:41:00,1.087402,-0.012939,0.063721
15:41:00,0.655029,0.078369,0.517578
15:41:00,0.651611,0.098145,0.925537
15:41:00,0.259766,-0.069336,0.917725
15:41:00,1.216553,0.20874,0.340332
15:41:00,1.066406,0.141113,0.248047
15:41:00,0.45166,0.263672,0.779785
15:41:00,0.401855,0.433105,1.144775
15:41:00,0.659668,0.420898,1.425537
15:41:00,1.599854,-0.019775,1.453857
15:41:00,1.383545,-0.380859,1.030029
15:41:00,1.432861,-0.341064,0.584961
15:41:00,2.961914,-0.088623,0.171387
15:41:00,6.851807,-0.772705,-0.273438
15:41:00,7.800049,1.066406,-0.373047
15:41:00,5.232422,4.785645,-0.113037
15:41:00,2.453613,4.275879,0.166992
15:41:00,0.289063,1.265869,0.75415
15:41:00,0.0625,0.352539,1.265869
15:41:00,0.312256,0.48291,0.997803
15:41:00,0.212402,0.357422,0.48999
15:41:00,0.109619,0.079102,0.177979
15:41:00,0.094238,-0.240967,0.530762
15:41:00,0.160645,-0.468262,0.741211
15:41:00,0.264404,-0.593262,0.712646
15:41:00,0.404541,-0.645752,0.671143
15:41:00,0.531738,-0.597168,0.677002
15:41:00,0.601563,-0.471191,0.535156
15:41:00,0.69043,-0.32373,0.435059
15:41:00,0.802002,-0.177979,0.378662
15:41:00,3.226318,-0.073486,0.330322
15:41:00,1.772705,0.254883,-0.797852
15:41:00,1.644287,0.761475,-0.193604
15:41:00,1.302979,0.793701,-0.087402
15:41:00,1.527588,0.556885,-0.105957
15:41:00,1.707764,0.088867,-0.043457
15:41:00,1.8125,-0.127197,-0.029785
15:41:00,1.857666,-0.307861,-0.069824
15:41:00,1.952393,-0.488525,-0.2146
15:41:00,2.225098,-0.665283,-0.245117
15:41:00,2.662842,-0.704834,-0.080322
15:41:00,3.275391,-0.425293,-0.022705
15:41:00,3.742188,0.355713,-0.318359
15:41:00,3.593506,2.349609,-1.411865
15:41:00,2.72168,4.266357,-3.394287
15:41:00,1.505859,3.798828,-4.924072
15:41:00,0.369385,1.585205,-4.842041
15:41:00,-0.349365,0.017334,-4.103516
15:41:00,0.175781,-0.149414,-3.757324
15:41:00,0.76416,-0.358154,-3.387939
15:41:00,-0.793945,-0.132324,-2.972656
15:41:00,-0.7229,0.144043,-1.667725
15:41:00,1.213867,0.154541,1.33252
15:41:00,2.02124,-0.315674,2.663818
15:41:00,0.024902,-0.42334,-0.974121
15:41:00,1.029785,-0.54541,0.1521
15:41:00,3.746094,-0.346436,3.893799
15:41:00,4.132324,0.986328,0.010742
15:41:00,3.017822,2.694092,-3.884033
15:41:00,4.062012,1.87915,-2.599609
15:41:00,3.116699,-0.261475,-0.321777
15:41:00,1.429443,-0.721924,0.064209
15:41:00,0.963623,-0.737793,0.614258
15:41:00,0.639404,-0.77124,0.93042
15:41:00,0.363525,-0.756836,0.814453
15:41:00,0.290771,-0.64209,0.703613
15:41:00,0.30835,-0.444824,0.655029
15:41:00,0.297852,-0.265137,0.624512
15:41:00,0.264893,-0.131836,0.629639
15:41:00,0.277588,-0.014648,0.662354
15:41:00,0.302734,0.06958,0.622803
15:41:00,0.321533,0.122803,0.52002
15:41:00,0.335938,0.119873,0.420654
15:41:00,0.798584,0.246338,0.621826
15:41:00,1.458008,0.451904,0.598389
15:41:00,1.450195,0.39624,-0.19458
15:41:00,1.569824,0.396484,-0.213135
15:41:00,1.418213,0.248779,0.155518
15:41:00,0.823242,0.013428,0.359863
15:41:00,0.74707,-0.066895,0.616455
15:41:00,0.617188,-0.119629,0.599609
15:41:00,0.543213,-0.161621,0.493896
15:41:00,0.602783,-0.187988,0.516846
15:41:00,0.813232,-0.171631,0.531006
15:41:00,1.30835,-0.141602,0.35791
15:41:00,0.927979,-0.150146,0.097168
15:41:00,1.072266,-0.005127,0.534912
15:41:00,0.749756,0.060059,0.306885
15:41:00,0.760986,0.047119,0.467773
15:41:00,0.722168,0.074707,0.424805
15:41:00,0.968994,0.05835,0.27417
15:41:00,1.031494,0.031494,0.286621
15:41:00,0.736328,0.042725,0.560791
15:41:00,0.769531,0.042725,0.676758
15:41:00,1.130615,0.017578,-0.007324
15:41:00,0.932617,-0.031738,0.13916
15:41:00,0.604004,-0.0625,1.02002
15:41:01,0.540039,0.060547,0.835449
15:41:01,0.773682,0.052246,0.283691
15:41:01,1.101807,-0.121582,0.151855
15:41:01,0.868408,0.020508,0.355957
15:41:01,0.637207,0.26123,0.938721
15:41:01,0.637695,0.294922,1.334229
15:41:01,0.245605,0.355957,1.174805
15:41:01,0.508057,0.221191,0.443359
15:41:01,1.719238,-0.230225,1.044434
15:41:01,2.046631,-0.53833,1.061523
15:41:01,1.885498,-0.817383,1.328613
15:41:01,0.945557,-0.513916,0.880615
15:41:01,0.459229,-0.362061,0.06543
15:41:01,3.338379,-0.139404,0.287598
15:41:01,7.92627,1.914307,-0.526367
15:41:01,6.010742,3.572266,-2.040527
15:41:01,3.727051,3.76709,-0.546387
15:41:01,1.107178,1.056396,0.84668
15:41:01,0.247314,0.36792,1.192139
15:41:01,0.134277,0.585693,0.825195
15:41:01,-0.095947,0.675049,0.025391
15:41:01,-0.345215,0.621094,-0.026123
15:41:01,-0.42334,0.440918,0.461426
15:41:01,-0.466797,0.204102,0.522949
15:41:01,-0.348145,-0.011475,0.422852
15:41:01,-0.058105,-0.200439,0.57373
15:41:01,0.215332,-0.333496,0.747559
15:41:01,0.416016,-0.382568,0.77124
15:41:01,0.534424,-0.371582,0.749512
15:41:01,0.597168,-0.32373,0.675537
15:41:01,0.814209,-0.185303,0.92334
15:41:01,1.92334,-0.119629,0.10791
15:41:01,2.180664,0.005859,-1.26709
15:41:01,1.259277,0.824707,-0.08252
15:41:01,2.467041,1.320801,-0.014648
15:41:01,1.482666,0.515137,-0.48291
15:41:01,2.083252,0.174072,0.157959
15:41:01,2.004883,-0.15332,-0.161865
15:41:01,2.496826,-0.264404,-0.144287
15:41:01,2.786377,-0.183838,-0.359863
15:41:01,3.589355,0.396729,-0.473633
15:41:01,3.782715,1.24585,-1.140869
15:41:01,3.463379,2.215332,-1.875244
15:41:01,2.659668,2.758789,-2.796631
15:41:01,1.307861,2.337891,-3.710938
15:41:01,0.116455,1.271729,-4.174316
15:41:01,-0.164063,0.474121,-4.407471
15:41:01,0.175537,0.150879,-4.335693
15:41:01,-0.02832,-0.101807,-3.23999
15:41:01,-0.908936,-0.124512,-3.244873
15:41:01,-0.306885,0.952881,-2.458984
15:41:01,1.937012,1.212891,1.317627
15:41:01,1.312988,0.181885,1.900635
15:41:01,0.028564,-0.391602,-0.416504
15:41:01,1.155029,-0.361328,0.042725
15:41:01,3.853027,-0.312744,1.670654
15:41:01,4.681641,1.054199,0.155762
15:41:01,3.647949,2.820068,-3.450195
15:41:01,3.830078,1.249023,-2.804932
15:41:01,2.85498,-1.145752,0.438721
15:41:01,1.096924,-0.695068,-0.050537
15:41:01,0.86792,-0.760254,0.738037
15:41:01,0.537598,-0.797852,0.988037
15:41:01,0.273438,-0.699463,0.700928
15:41:01,0.273682,-0.52124,0.770508
15:41:01,0.362793,-0.359375,0.638184
15:41:01,0.305664,-0.214111,0.589355
15:41:01,0.264893,-0.084473,0.595459
15:41:01,0.296875,0.015869,0.640381
15:41:01,0.340576,0.090088,0.583252
15:41:01,0.381592,0.124023,0.494385
15:41:01,0.391602,0.092529,0.397949
15:41:01,1.314941,0.294434,0.785889
15:41:01,1.475098,0.342773,0.273438
15:41:01,1.460938,0.376953,-0.298828
15:41:01,1.674072,0.36499,-0.080811
15:41:01,1.165283,0.142578,0.185547
15:41:01,0.794189,0.000977,0.468262
15:41:01,0.675293,-0.05957,0.650879
15:41:01,0.550537,-0.08667,0.598633
15:41:01,0.523438,-0.121582,0.510254
15:41:01,0.564209,-0.137939,0.500488
15:41:01,0.936279,-0.169189,0.543945
15:41:01,1.060791,-0.234375,0.126953
15:41:01,0.958984,-0.171875,0.112793
15:41:01,0.974854,-0.020508,0.56665
15:41:01,0.693848,0.019287,0.387695
15:41:01,0.886963,0.021729,0.4646
15:41:01,1.138428,0.047852,0.352295
15:41:01,0.887695,-0.015381,0.286621
15:41:01,0.800049,0.038086,0.36084
15:41:01,0.947021,0.025879,0.406494
15:41:01,0.953857,-0.000488,0.209717
15:41:01,0.770508,0.013428,0.512695
15:41:01,0.634521,-0.012939,0.760254
15:41:01,0.674316,0.062988,0.682861
15:41:01,0.816406,0.036621,0.422607
15:41:01,1.18457,-0.186768,-0.033936
15:41:01,0.896973,0.019775,0.111084
15:41:01,0.650391,0.066406,0.901855
15:41:02,0.615723,0.167725,1.107178
15:41:02,0.579102,0.199463,1.180176
15:41:02,0.170898,0.286133,0.939453
15:41:02,1.215332,-0.085693,1.183594
15:41:02,0.976318,-0.040771,0.929688
15:41:02,1.880371,-0.439697,0.87915
15:41:02,2.13208,-0.79541,0.820557
15:41:02,0.977295,-0.56665,1.118164
15:41:02,0.12207,-0.800293,-0.285889
15:41:02,4.974854,0.849121,-0.084229
15:41:02,7.999756,2.375488,-0.955811
15:41:02,5.637695,3.621826,-2.549316
15:41:02,3.344482,3.9729,-0.23999
15:41:02,0.656738,0.898438,0.971191
15:41:02,0.036865,0.276855,1.251953
15:41:02,0.147705,0.682373,0.619873
15:41:02,-0.208984,0.813477,-0.040283
15:41:02,-0.432861,0.750244,0.014893
15:41:02,-0.407471,0.537109,0.632813
15:41:02,-0.380127,0.307861,0.651367
15:41:02,-0.26709,0.084473,0.407471
15:41:02,-0.018555,-0.12915,0.490479
15:41:02,0.212891,-0.239746,0.532471
15:41:02,0.371094,-0.341553,0.546143
15:41:02,0.499268,-0.402588,0.574463
15:41:02,0.651611,-0.429688,0.577393
15:41:02,1.420898,-0.35498,1.264893
15:41:02,2.674561,0.014893,0.471924
15:41:02,2.735596,0.655762,-1.054199
15:41:02,2.916504,1.095215,-1.347168
15:41:02,2.134521,0.579102,-0.741943
15:41:02,1.49707,0.203857,-0.14917
15:41:02,1.106201,0.070557,0.066162
15:41:02,1.062988,0.032227,0.178467
15:41:02,1.656006,0.097168,0.334229
15:41:02,2.866455,0.449707,0.428711
15:41:02,4.086426,1.044189,-0.634521
15:41:02,4.399414,2.014404,-1.844238
15:41:02,3.612061,2.947266,-2.262939
15:41:02,2.499756,2.624023,-3.005127
15:41:02,1.418945,1.17041,-3.710449
15:41:02,0.243896,0.099365,-3.967773
15:41:02,-0.570801,-0.117188,-3.95874
15:41:02,-0.440674,-0.195801,-3.544678
15:41:02,0.78418,0.261475,-3.417236
15:41:02,0.36084,0.9104,-3.749756
15:41:02,-0.916992,0.810303,-3.220703
15:41:02,1.501953,1.374268,0.442871
15:41:02,1.803711,0.227051,2.997803
15:41:02,0.253174,-0.412109,-0.077881
15:41:02,0.168945,-0.764648,-1.532471
15:41:02,2.381104,-0.902588,0.950195
15:41:02,4.142822,-2.136719,1.545898
15:41:02,4.163086,-2.003906,-0.811035
15:41:02,3.953857,-0.455078,-2.558594
15:41:02,3.832764,0.763916,-1.225098
15:41:02,2.428955,0.694336,-0.186768
15:41:02,1.01123,0.387695,0.069092
15:41:02,0.664307,0.316895,0.592529
15:41:02,0.46582,0.334961,0.666992
15:41:02,0.332764,0.361816,0.55835
15:41:02,0.274658,0.346191,0.544922
15:41:02,0.239258,0.27002,0.577637
15:41:02,0.289795,0.162598,0.578857
15:41:02,0.395508,0.05542,0.516113
15:41:02,0.405518,0.00415,0.582764
15:41:02,1.645508,-0.129395,0.511475
15:41:02,2.005371,-0.248291,-0.031982
15:41:02,0.539063,-0.092773,0.157227
15:41:02,0.938965,0.022705,0.925537
15:41:02,0.467773,0.034424,0.467773
15:41:02,0.700684,0.125244,0.49707
15:41:02,1.052246,0.164551,0.454102
15:41:02,0.904541,0.095459,0.227783
15:41:02,0.835205,0.159424,0.504883
15:41:02,0.717773,0.115234,0.452393
15:41:02,0.83374,0.024414,0.468262
15:41:02,0.861328,-0.031982,0.435303
15:41:02,1.043701,-0.045166,0.268066
15:41:02,0.983887,-0.093262,0.330078
15:41:02,0.812012,-0.058105,0.472168
15:41:02,0.801025,0.014893,0.48584
15:41:02,0.871826,0.08667,0.348145
15:41:02,0.811279,0.077393,0.477051
15:41:02,0.92334,0.121338,0.306885
15:41:02,0.818604,0.080566,0.439941
15:41:02,0.899414,0.066406,0.469727
15:41:02,1.039795,0.103271,0.253418
15:41:02,0.832764,0.038086,0.566895
15:41:02,0.753418,-0.009766,0.711914
15:41:02,1.110352,0.001953,0.128174
15:41:02,1.004639,-0.007568,0.139404
15:41:02,0.526611,-0.02832,0.777588
15:41:02,0.415039,0.022461,0.890869
15:41:02,0.659668,0.10498,0.410156
15:41:02,1.02124,0.061035,-0.05835
15:41:02,1.114014,0.018555,0.213867
15:41:02,0.879395,0.176758,0.928955
15:41:02,0.318115,0.400635,1.291016
15:41:02,0.395508,0.427246,1.197998
15:41:03,1.164795,0.101807,0.820068
15:41:03,1.670166,-0.275146,0.76123
15:41:03,1.743652,-0.590088,0.64624
15:41:03,1.694824,-0.520996,0.949707
15:41:03,0.832275,-0.365723,0.5354
15:41:03,7.892578,-0.13208,-0.224365
15:41:03,7.648438,-0.037354,-0.156982
15:41:03,5.506104,4.080322,-0.541748
15:41:03,3.128906,5.449219,-1.092529
15:41:03,0.744873,2.497314,-0.047607
15:41:03,-0.184082,0.737061,1.020996
15:41:03,0.124268,0.520752,1.327881
15:41:03,0.161133,0.43335,0.479248
15:41:03,-0.047852,0.1875,-0.183105
15:41:03,-0.117188,-0.21875,0.211426
15:41:03,-0.131104,-0.532959,0.591797
15:41:03,-0.0625,-0.729004,0.601074
15:41:03,0.147949,-0.81543,0.608643
15:41:03,0.425537,-0.828125,0.698242
15:41:03,0.646484,-0.826416,0.697266
15:41:03,0.770264,-0.761475,0.560547
15:41:03,0.734619,-0.666992,0.531982
15:41:03,2.460205,-0.595215,0.591064
15:41:03,3.481689,-0.258789,-0.206787
15:41:03,1.219238,0.480225,-0.833984
15:41:03,1.991943,1.156006,0.022461
15:41:03,1.421631,1.672363,-0.787842
15:41:03,1.362305,1.603271,-0.422852
15:41:03,1.126709,0.940918,0.01123
15:41:03,1.246094,0.594971,0.00293
15:41:03,1.724365,0.377441,0.036377
15:41:03,2.552979,0.254639,0.288818
15:41:03,3.594238,0.562744,0.218506
15:41:03,4.339844,1.48877,-0.497314
15:41:03,4.234375,2.174561,-1.517822
15:41:03,3.432373,2.311035,-2.516357
15:41:03,2.059082,1.489258,-3.058105
15:41:03,0.777344,0.385742,-3.322754
15:41:03,0.027588,-0.044189,-3.864502
15:41:03,0.083496,-0.296143,-3.770996
15:41:03,0.400635,-0.354248,-3.19751
15:41:03,0.975098,0.958496,-3.556641
15:41:03,0.936035,2.206543,-5.011719
15:41:03,0.422363,2.182617,-2.806152
15:41:03,2.848877,0.774414,2.540527
15:41:03,1.895752,-0.091797,3.699219
15:41:03,-1.37085,0.003906,-0.647461
15:41:03,-2.421631,-0.966797,-3.22876
15:41:03,-2.759033,-2.962646,0.515137
15:41:03,-0.111084,-2.800293,2.980957
15:41:03,2.278076,-1.30957,1.374023
15:41:03,2.99707,-2.275391,1.452393
15:41:03,5.43457,-1.533203,-2.029541
15:41:03,5.217041,2.271729,-5.374023
15:41:03,4.403076,2.981934,-3.369141
15:41:03,1.374756,0.579102,-0.766602
15:41:03,0.806396,-0.061035,0.672852
15:41:03,0.616943,-0.112793,1.448242
15:41:03,0.178467,-0.009033,0.705322
15:41:03,-0.178223,0.032471,-0.131592
15:41:03,-0.252686,0.078369,0.253906
15:41:03,-0.000977,0.049561,1.031494
15:41:03,-1.108154,-0.534424,1.439697
15:41:03,-0.570801,-0.279053,0.561768
15:41:03,0.137939,-0.158447,0.870605
15:41:03,0.319336,-0.154053,0.88501
15:41:03,0.293213,-0.158203,0.565918
15:41:03,0.334229,-0.147217,0.396973
15:41:03,0.419678,-0.131104,0.387939
15:41:03,0.479248,-0.155029,0.442383
15:41:03,1.911621,0.041504,0.626709
15:41:03,2.045898,0.253418,-0.393555
15:41:03,2.081299,0.543457,-0.822998
15:41:03,2.014893,0.442139,-0.196777
15:41:03,0.973145,0.06958,0.152832
15:41:03,0.702881,-0.019043,0.588379
15:41:03,0.699707,-0.070557,0.852051
15:41:03,0.465332,-0.120361,0.57666
15:41:03,0.315186,-0.173096,0.358643
15:41:03,0.433594,-0.202637,0.54834
15:41:03,0.519043,-0.216064,0.549316
15:41:03,0.513184,-0.179932,0.468018
15:41:03,0.912109,-0.172119,0.419678
15:41:03,1.601807,-0.161865,-0.233398
15:41:03,0.889648,-0.052734,0.266602
15:41:03,0.668701,0.128662,0.653564
15:41:03,0.661621,0.255371,0.428467
15:41:03,0.885742,0.312744,0.300293
15:41:03,1.198975,0.224854,0.022949
15:41:03,0.640869,0.172852,0.439697
15:41:03,0.626221,0.19165,1.0271
15:41:03,0.630371,0.304199,0.435059
15:41:03,0.79834,0.036621,0.256592
15:41:03,1.124023,-0.083984,0.376221
15:41:03,1.048584,-0.064209,0.107666
15:41:03,1.018066,-0.037354,0.210693
15:41:03,0.641357,0.10791,1.186279
15:41:03,0.57251,0.273926,2.222656
15:41:03,0.247314,0.060547,1.748047
15:41:03,-0.01709,-0.168945,0.562012
15:41:04,0.563232,-0.216797,-0.348145
15:41:04,2.041748,-0.374023,0.816162
15:41:04,3.111572,-0.663818,2.007324
15:41:04,0.801514,-1.003418,-1.880127
15:41:04,2.800293,-0.26709,-2.749023
15:41:04,7.999756,1.816162,-0.182129
15:41:04,6.275879,3.011475,-2.916504
15:41:04,4.520996,2.170166,-0.07666
15:41:04,1.691406,0.144043,0.982178
15:41:04,0.63916,-0.02002,1.086426
15:41:04,0.237549,0.334229,0.573242
15:41:04,-0.050781,0.737549,-0.242432
15:41:04,-0.336426,0.942627,-0.42749
15:41:04,-0.345947,0.965576,0.016846
15:41:04,-0.375488,0.842529,0.392334
15:41:04,-0.470703,0.731445,0.38623
15:41:04,-0.327637,0.45752,0.523926
15:41:04,-0.036621,0.197021,0.727295
15:41:04,0.214111,0.002197,0.78833
15:41:04,0.429443,-0.120361,0.73291
15:41:04,0.524902,-0.181152,0.618652
15:41:04,0.499512,-0.233643,0.407959
15:41:04,0.837891,-0.028809,0.979492
15:41:04,3.87915,0.518799,0.468994
15:41:04,2.93335,0.188965,-1.957275
15:41:04,1.927979,0.362793,-1.391357
15:41:04,1.827148,0.536865,-0.047852
15:41:04,1.051758,0.213135,-0.026611
15:41:04,1.265137,0.138184,0.23584
15:41:04,1.880859,0.187988,0.255127
15:41:04,2.716064,0.117188,-0.511475
15:41:04,3.260254,0.233887,-0.95459
15:41:04,3.021973,0.809326,-0.507568
15:41:04,3.366943,1.424805,-0.7146
15:41:04,3.640137,2.008301,-1.670166
15:41:04,3.142334,2.489746,-2.668457
15:41:04,2.021973,2.269775,-3.819092
15:41:04,0.87793,0.91748,-4.094238
15:41:04,0.021973,0.068359,-3.844482
15:41:04,-0.433838,-0.121826,-3.659912
15:41:04,0.225586,-0.131836,-3.158936
15:41:04,0.668457,0.168945,-3.144775
15:41:04,0.933105,1.578125,-3.44873
15:41:04,1.617676,1.736328,-0.443115
15:41:04,2.12793,0.86499,2.054443
15:41:04,-0.227539,0.10376,1.67334
15:41:04,-0.95459,-0.143555,-1.422852
15:41:04,-0.716797,-0.614746,-1.613037
15:41:04,-0.20874,-2.282959,1.918701
15:41:04,1.125244,-2.111816,2.468018
15:41:04,1.404541,-1.526367,1.337646
15:41:04,2.927979,-2.614258,0.929932
15:41:04,3.028809,-2.724365,-0.804688
15:41:04,2.981201,-0.894043,-1.972168
15:41:04,3.905273,1.652344,-1.765625
15:41:04,2.392578,2.308594,-1.727539
15:41:04,0.681396,1.068115,-0.519287
15:41:04,0.717285,0.311523,1.122314
15:41:04,0.36084,0.403076,0.9729
15:41:04,0.11377,0.609619,0.345947
15:41:04,0.165771,0.455811,0.388672
15:41:04,0.100586,0.325684,0.671875
15:41:04,0.131104,0.182373,0.747559
15:41:04,0.174072,0.032227,0.692383
15:41:04,0.255127,-0.098633,0.667969
15:41:04,0.330078,-0.212646,0.672607
15:41:04,0.402344,-0.292236,0.66748
15:41:04,0.462891,-0.313232,0.618164
15:41:04,0.570801,-0.296143,0.561035
15:41:04,0.771729,-0.282959,0.577637
15:41:04,1.666504,-0.095459,0.627686
15:41:04,1.593018,0.097656,-0.185303
15:41:04,1.83252,0.287598,-0.236816
15:41:04,1.43457,0.233154,0.076416
15:41:04,0.905518,0.121582,0.335205
15:41:04,0.717773,0.031006,0.625488
15:41:04,0.579346,0,0.68042
15:41:04,0.451172,0.001221,0.541992
15:41:04,0.395508,-0.007813,0.554443
15:41:04,0.651123,-0.019775,0.61377
15:41:04,1.139648,-0.049072,0.238281
15:41:04,1.117676,-0.136963,0.265625
15:41:04,0.922852,-0.135254,0.530273
15:41:04,0.850342,-0.030518,0.479736
15:41:04,0.744629,0.003906,0.524414
15:41:04,0.856689,0.026855,0.444336
15:41:04,0.919434,0.061768,0.336426
15:41:04,0.772949,0.058838,0.580811
15:41:04,0.737793,0.108887,0.590088
15:41:04,0.759033,0.095947,0.477783
15:41:04,0.825439,0.036621,0.575684
15:41:04,0.820801,0.02002,0.523682
15:41:04,0.645996,-0.019043,0.599609
15:41:04,0.836914,0.00708,0.513916
15:41:04,0.765869,0.046143,0.30957
15:41:04,0.83374,-0.000488,0.52124
15:41:04,0.905762,0.031738,0.860352
15:41:04,0.747803,0.150635,0.821777
15:41:04,0.512207,0.188965,1.068848
15:41:04,0.205322,0.408203,0.917725
15:41:05,1.4375,0.030273,1.337646
15:41:05,1.109375,-0.070557,1.132568
15:41:05,2.194336,-0.718262,1.433838
15:41:05,1.58252,-0.540771,0.894531
15:41:05,0.359863,-0.109619,0.434814
15:41:05,6.035645,-0.886475,-0.105713
15:41:05,7.999756,-0.101318,-0.053955
15:41:05,5.450684,3.371582,0.612793
15:41:05,2.347656,3.882568,0.407227
15:41:05,0.088623,1.452637,0.340088
15:41:05,-0.198975,0.5271,1.002197
15:41:05,0.22876,0.75293,1.1604
15:41:05,0.154541,0.677246,0.571533
15:41:05,-0.00415,0.427246,0.201904
15:41:05,-0.048096,0.033936,0.495361
15:41:05,-0.055176,-0.336182,0.535156
15:41:05,-0.032227,-0.570801,0.38623
15:41:05,0.098145,-0.749756,0.466797
15:41:05,0.311768,-0.906006,0.563721
15:41:05,0.525635,-1.028564,0.564941
15:41:05,0.751709,-1.116455,0.559082
15:41:05,1.023438,-1.210938,0.532471
15:41:05,1.586426,-1.178223,0.425537
15:41:05,2.942383,-0.989258,-0.606445
15:41:05,1.885742,-0.504395,-0.394287
15:41:05,1.72583,-0.08374,0.29834
15:41:05,1.659424,0.42749,0.193359
15:41:05,1.830566,0.963867,-0.360596
15:41:05,2.022705,1.13916,-0.515381
15:41:05,2.018066,0.973145,-0.457275
15:41:05,2.137695,0.454834,-0.1604
15:41:05,2.82373,-0.023193,0.111572
15:41:05,3.526855,-0.169678,0.053955
15:41:05,3.805908,0.446533,-0.355713
15:41:05,3.614014,1.577148,-1.113281
15:41:05,3.100098,2.325684,-2.228271
15:41:05,2.035156,2.255859,-3.474121
15:41:05,0.624512,1.478516,-4.215088
15:41:05,-0.432373,0.631592,-4.3479
15:41:05,-0.342773,0.15918,-4.144531
15:41:05,1.003662,-0.200439,-4.060791
15:41:05,0.677002,-0.297607,-3.842773
15:41:05,0.119873,0.075684,-1.517578
15:41:05,2.641602,0.393555,2.310791
15:41:05,1.57959,0.31665,3.075684
15:41:05,-0.551025,-0.154053,-0.210449
15:41:05,-0.359863,-0.307373,-2.091309
15:41:05,1.055908,-0.599121,0.322266
15:41:05,2.419678,-1.005127,2.813477
15:41:05,1.911865,-1.195801,0.716309
15:41:05,3.088867,-1.555176,0.181641
15:41:05,5.197754,-0.885742,-0.580322
15:41:05,3.606201,1.076172,-2.778564
15:41:05,3.484375,1.671143,-1.445557
15:41:05,1.452637,0.577148,-0.451904
15:41:05,0.769287,0.19043,0.391846
15:41:05,0.648193,0.110352,0.932861
15:41:05,0.471924,0.130859,0.818115
15:41:05,0.181885,0.146484,0.342041
15:41:05,0.10498,0.132568,0.45752
15:41:05,0.198975,0.056396,0.80542
15:41:05,0.25293,-0.029785,0.737061
15:41:05,0.294189,-0.109375,0.587646
15:41:05,0.367432,-0.172852,0.625
15:41:05,0.44165,-0.203125,0.618164
15:41:05,0.189209,-0.193848,0.477539
15:41:05,2.28833,-0.205811,0.695068
15:41:05,2.604492,-0.231201,0.154053
15:41:05,0.224609,-0.037842,-0.163818
15:41:05,1.249756,0.299805,0.867188
15:41:05,0.608643,0.444336,0.339844
15:41:05,0.581543,0.481934,0.2771
15:41:05,0.733154,0.43042,0.501465
15:41:05,0.791504,0.283203,0.321045
15:41:05,1.15625,0.09375,0.326416
15:41:05,0.831055,-0.06958,0.359375
15:41:05,0.969971,-0.116699,0.474121
15:41:05,0.869873,-0.158447,0.437988
15:41:05,0.827881,-0.171631,0.484375
15:41:05,0.812256,-0.114014,0.516602
15:41:05,0.825928,-0.042236,0.458496
15:41:05,0.846191,0.049072,0.434326
15:41:05,0.785645,0.109131,0.490479
15:41:05,0.955078,0.072266,0.373779
15:41:05,0.838379,0.064697,0.398926
15:41:05,0.893066,0.043457,0.558594
15:41:05,0.920166,0.013916,0.404785
15:41:05,0.742188,-0.033691,0.577637
15:41:05,0.731934,-0.05542,0.776855
15:41:05,0.920654,-0.023438,0.375977
15:41:05,0.748535,-0.023193,0.315918
15:41:05,0.44165,-0.085205,0.999512
15:41:05,0.23291,-0.080566,1.012695
15:41:05,0.691895,0.07959,0.685059
15:41:05,1.123047,0.107666,0.598145
15:41:05,0.799561,-0.018555,0.481201
15:41:05,0.506836,0.176514,0.757324
15:41:05,0.593262,0.331543,1.112305
15:41:05,1.149414,0.141846,1.418701
15:41:05,1.034668,-0.029053,1.203125
15:41:06,2.419189,-0.723389,1.291992
15:41:06,0.918945,-0.487061,0.7229
15:41:06,1.432617,-0.498047,0.228027
15:41:06,7.999756,-1.134033,-0.623047
15:41:06,7.815674,-0.607422,0.338623
15:41:06,5.345947,2.317139,0.587891
15:41:06,3.23584,4.552979,-0.132813
15:41:06,0.772705,2.841064,-0.434814
15:41:06,-0.287598,1.068115,0.526367
15:41:06,-0.057861,0.925537,1.001953
15:41:06,0.037109,0.942383,0.673096
15:41:06,-0.189941,0.866211,0.084717
15:41:06,-0.312744,0.579102,0.270752
15:41:06,-0.313721,0.224609,0.570557
15:41:06,-0.219971,-0.06543,0.54541
15:41:06,-0.002197,-0.292725,0.593018
15:41:06,0.257324,-0.437988,0.738525
15:41:06,0.422119,-0.504639,0.7146
15:41:06,0.520996,-0.541748,0.609619
15:41:06,0.519287,-0.505615,0.491943
15:41:06,1.587402,-0.345215,1.30127
15:41:06,2.606201,-0.395264,0.331299
15:41:06,2.355713,-0.003662,-1.606445
15:41:06,2.235107,1.103027,-0.489746
15:41:06,1.650391,1.390869,0.01123
15:41:06,1.282959,1.017822,-0.159424
15:41:06,2.087646,0.450684,0.104492
15:41:06,2.855713,-0.381104,-0.325684
15:41:06,2.97998,-0.45874,-0.438965
15:41:06,3.001953,-0.217529,-0.145508
15:41:06,3.310791,0.198486,-0.466797
15:41:06,3.631104,1.320068,-1.175781
15:41:06,3.337402,2.758789,-2.210449
15:41:06,2.694336,3.547607,-3.392578
15:41:06,1.622559,2.76001,-4.442627
15:41:06,0.825928,0.865967,-4.63208
15:41:06,-0.068115,0.098633,-4.95874
15:41:06,0.168213,-0.411621,-4.287354
15:41:06,0.324951,-0.509277,-3.356201
15:41:06,-0.99292,-0.192627,-3.295654
15:41:06,0.24585,0.373535,-1.176025
15:41:06,2.839355,0.5271,3.208008
15:41:06,0.655273,-0.081543,0.709961
15:41:06,-1.094238,-0.826904,-3.118896
15:41:06,0.762939,-0.937012,-1.042969
15:41:06,4.066162,-2.396484,2.165283
15:41:06,3.866455,-3.136475,1.490479
15:41:06,3.038574,-1.644531,-0.159668
15:41:06,4.076172,0.488037,-1.571777
15:41:06,3.692871,2.017578,-2.455566
15:41:06,2.402588,1.44043,-1.218262
15:41:06,1.014404,0.293457,-0.079102
15:41:06,0.782959,0.080566,0.782227
15:41:06,0.506836,0.015381,0.955811
15:41:06,0.298584,0.077393,0.563477
15:41:06,0.089844,0.078369,0.304199
15:41:06,0.223633,-0.030518,0.60083
15:41:06,0.290771,-0.05542,0.739014
15:41:06,0.317383,-0.118408,0.614746
15:41:06,0.363525,-0.19165,0.576416
15:41:06,0.437256,-0.234131,0.578125
15:41:06,0.508301,-0.235352,0.535156
15:41:06,0.564697,-0.216309,0.453125
15:41:06,1.590088,-0.066406,0.82666
15:41:06,1.506836,0.109863,0.011475
15:41:06,1.730469,0.33667,-0.279053
15:41:06,1.508789,0.324951,-0.038086
15:41:06,0.954834,0.186279,0.210938
15:41:06,0.757813,0.074951,0.507324
15:41:06,0.608887,0.000488,0.620605
15:41:06,0.498779,-0.023926,0.554688
15:41:06,0.473145,-0.062744,0.468506
15:41:06,0.501709,-0.076416,0.485107
15:41:06,1.378906,-0.044189,0.352051
15:41:06,1.522461,-0.090332,0.210449
15:41:06,0.845215,-0.063232,0.388916
15:41:06,0.794434,0.044434,0.522705
15:41:06,0.820801,0.02002,0.397949
15:41:06,0.902832,-0.041992,0.357666
15:41:06,0.885986,-0.056152,0.419922
15:41:06,0.907715,-0.004639,0.353271
15:41:06,0.749268,0.003906,0.408447
15:41:06,0.790771,-0.009033,0.580078
15:41:06,0.997559,-0.053223,0.361816
15:41:06,1.10791,-0.038818,0.026855
15:41:06,0.662354,0.016357,0.580078
15:41:06,0.592529,-0.008789,0.993896
15:41:06,0.67334,0.139404,0.41626
15:41:06,0.725586,-0.102783,0.487549
15:41:06,1.026611,-0.118652,0.27417
15:41:06,0.817139,0.023926,0.298096
15:41:06,0.706299,0.124023,0.855469
15:41:06,0.476807,0.183594,1.378418
15:41:06,0.349609,0.324219,1.430176
15:41:06,0.766846,0.067627,1.480225
15:41:06,1.100586,-0.173828,0.910889
15:41:06,1.873291,-0.368164,0.995117
15:41:06,0.967285,-0.467285,0.275391
15:41:06,0.496582,-0.393799,0.745605
15:41:06,5.618408,-0.961182,-0.103516
15:41:07,7.999756,-0.946045,-0.6604
15:41:07,6.547852,2.554199,-0.105225
15:41:07,3.649902,5.106934,-0.498047
15:41:07,1.047852,2.79541,-0.237549
15:41:07,-0.162598,0.535889,0.769531
15:41:07,0.129883,0.513184,1.194092
15:41:07,0.239502,0.58667,0.63916
15:41:07,-0.078857,0.487305,-0.121826
15:41:07,-0.26709,0.253418,0.143555
15:41:07,-0.188721,-0.05835,0.638916
15:41:07,-0.091797,-0.291748,0.565918
15:41:07,0.090088,-0.438965,0.527588
15:41:07,0.301514,-0.548584,0.670898
15:41:07,0.487305,-0.613525,0.684326
15:41:07,0.617676,-0.608398,0.607178
15:41:07,0.829102,-0.577148,0.605713
15:41:07,1.726807,-0.67334,0.982178
15:41:07,2.653809,-0.578369,-1.003906
15:41:07,2.319092,-0.168701,-0.736572
15:41:07,1.837891,0.519043,0.044678
15:41:07,1.302734,0.821045,-0.246094
15:41:07,1.327637,0.914551,-0.131348
15:41:07,1.658447,0.744873,0.052979
15:41:07,1.893066,0.281494,-0.308838
15:41:07,2.499512,-0.22168,-0.120605
15:41:07,3.019531,-0.539795,0.164551
15:41:07,3.465576,-0.562744,0.139893
15:41:07,3.821045,-0.156738,-0.072021
15:41:07,3.716064,0.882568,-0.635254
15:41:07,3.118652,2.517578,-2.059326
15:41:07,1.901367,3.366699,-4.110352
15:41:07,0.55957,2.140381,-5.126953
15:41:07,-0.232178,0.437012,-4.631104
15:41:07,-0.260498,-0.101807,-3.948975
15:41:07,0.681396,-0.258789,-3.489502
15:41:07,0.642578,-0.279785,-3.206055
15:41:07,-1.015625,-0.151855,-2.75415
15:41:07,0.148682,0.193115,0.103027
15:41:07,2.838135,0.229004,3.574219
15:41:07,0.544678,-0.554688,0.194092
15:41:07,0.399658,-0.785645,-1.051758
15:41:07,2.541504,-0.715576,1.8396
15:41:07,3.800781,-0.201416,0.902588
15:41:07,7.999756,1.468262,-2.791504
15:41:07,2.96167,0.674072,-2.927734
15:41:07,2.569824,1.24707,-0.740234
15:41:07,1.6875,0.428711,0.581543
15:41:07,0.718018,-0.077148,0.790039
15:41:07,0.46875,-0.180664,0.654541
15:41:07,0.418945,-0.307129,0.410889
15:41:07,0.386719,-0.37207,0.558105
15:41:07,0.407959,-0.396973,0.753418
15:41:07,0.42749,-0.365967,0.704346
15:41:07,0.455811,-0.2771,0.569092
15:41:07,0.45752,-0.193115,0.486572
15:41:07,0.78125,-0.089355,0.66626
15:41:07,1.562988,-0.094238,0.141846
15:41:07,1.433594,-0.120605,-0.184082
15:41:07,0.876465,0.125244,0.519531
15:41:07,0.837158,0.398926,0.547363
15:41:07,0.600342,0.45459,0.280273
15:41:07,0.668213,0.437744,0.469238
15:41:07,0.633789,0.356689,0.442627
15:41:07,0.881348,0.267334,0.361084
15:41:07,1.148926,0.067383,0.309814
15:41:07,0.877441,-0.065186,0.407227
15:41:07,0.781738,-0.052002,0.545166
15:41:07,0.788574,-0.101807,0.505859
15:41:07,0.875,-0.138184,0.419922
15:41:07,0.796631,-0.044189,0.469482
15:41:07,0.852783,0.044434,0.487305
15:41:07,1.087402,0.061035,0.338135
15:41:07,0.983154,0.07666,0.300293
15:41:07,0.769531,0.079834,0.455566
15:41:07,0.924072,0.072266,0.400146
15:41:07,0.915771,0.01416,0.433594
15:41:07,0.850098,-0.016602,0.507813
15:41:07,0.863525,-0.00293,0.30542
15:41:07,0.813721,-0.016357,0.430176
15:41:07,0.744385,0.010986,0.512695
15:41:07,0.718506,0.040527,0.564453
15:41:07,0.766113,0.059814,0.531738
15:41:07,0.892822,0.111084,0.33374
15:41:07,0.858887,0.122803,0.437988
15:41:07,0.62915,0.060303,0.740967
15:41:07,0.652588,0.029053,0.671875
15:41:07,0.950195,0.003662,0.118652
15:41:07,1.011719,-0.030518,-0.018311
15:41:07,0.740234,-0.005371,0.82666
15:41:07,0.533447,0.073242,1.326172
15:41:07,0.542969,0.297607,1.177246
15:41:07,0.329102,0.338379,0.983887
15:41:07,0.417725,0.181152,0.582275
15:41:07,1.428955,-0.03833,1.086426
15:41:07,2.151367,-0.410156,0.895996
15:41:07,1.613525,-0.526855,0.591797
15:41:07,1.590088,-0.306885,0.557129
15:41:07,1.048828,-0.311768,-0.1521
15:41:07,7.714844,-0.415283,0.128906
15:41:07,7.121094,0.324463,0.414795
