Time,Accel-X (g), Accel-Y (g), Accel-Z (g)
18:06:39,1.613525,1.391602,0.990479
18:06:39,0.398438,0.15332,1.041016
18:06:39,0.018066,0.218506,0.343018
18:06:39,-0.733643,0.44873,-0.359131
18:06:39,-1.231445,0.496094,-0.077393
18:06:39,-0.766846,0.541992,0.495361
18:06:39,0.883789,1.598389,0.959961
18:06:39,1.396484,2.091797,0.049561
18:06:39,0.661865,1.531494,-1.014893
18:06:39,0.6875,1.068848,-0.642822
18:06:39,0.888916,0.662598,-0.06958
18:06:39,0.750977,0.27124,0.084473
18:06:39,0.936768,0.152344,0.280029
18:06:39,1.232666,0.104492,0.259277
18:06:39,1.398682,-0.009033,0.051025
18:06:39,1.499756,-0.111816,-0.021729
18:06:39,2.508545,-0.584961,-0.101318
18:06:39,3.115234,-1.012451,-0.577881
18:06:39,2.075684,-0.772705,-0.706543
18:06:39,2.592285,-0.900391,0.126953
18:06:39,2.376953,-0.600098,-0.117676
18:06:39,2.832764,-0.215576,-0.883789
18:06:39,3.398193,-0.070801,-1.728271
18:06:39,2.916992,0.192139,-1.916016
18:06:39,2.356445,0.558105,-1.933594
18:06:39,1.679443,0.987061,-2.45459
18:06:39,1.143066,1.232178,-3.140381
18:06:39,1.359619,0.888428,-3.281494
18:06:39,1.320313,0.535645,-3.215332
18:06:39,1.121582,0.231201,-2.901123
18:06:39,0.977783,0.040283,-2.568115
18:06:39,-0.333984,0.039551,-2.086914
18:06:39,-1.101074,0.482178,-2.3479
18:06:39,-0.622314,0.513916,-1.176758
18:06:39,1.483887,-0.125732,1.700439
18:06:39,2.61084,-2.040527,2.282959
18:06:39,0.740234,-2.260254,-0.922607
18:06:39,3.527344,-3.778809,-1.770264
18:06:39,6.789551,-4.945557,-1.219482
18:06:39,4.287598,-3.220215,-0.536865
18:06:39,1.009033,-1.173096,-0.156982
18:06:39,0.610352,-0.445313,0.399902
18:06:39,1.035156,-0.11499,0.888428
18:06:39,1.107666,0.349609,0.434814
18:06:39,1.118896,1.139893,-0.263916
18:06:39,0.935303,1.676758,-0.484619
18:06:39,0.625488,1.270752,0.064209
18:06:39,0.487793,0.641602,0.744141
18:06:39,0.341797,0.270996,0.936035
18:06:39,0.293945,0.145996,0.766602
18:06:39,0.335449,0.047607,0.510254
18:06:39,0.507813,0.001709,0.521484
18:06:39,0.761475,-0.020996,0.591309
18:06:39,1.062012,-0.036377,0.577637
18:06:39,1.195557,-0.067627,0.402588
18:06:39,0.904297,-0.097412,0.238037
18:06:39,0.644775,-0.125732,0.498535
18:06:39,0.5625,-0.125,0.702637
18:06:39,0.56958,-0.110352,0.734375
18:06:39,0.787109,-0.101074,0.7229
18:06:39,0.95874,-0.005615,0.445068
18:06:39,0.933838,0.12207,0.303711
18:06:39,0.892822,0.182129,0.296387
18:06:39,0.917969,0.085449,0.489014
18:06:39,0.800537,0.055664,0.560303
18:06:39,0.818115,0.080566,0.510986
18:06:39,0.925049,0.051025,0.445801
18:06:39,0.98999,0.013916,0.364014
18:06:39,0.963623,-0.013672,0.386963
18:06:39,0.845947,-0.125977,0.492188
18:06:39,0.82251,-0.185303,0.635498
18:06:39,0.824463,-0.171875,0.661621
18:06:39,0.829834,-0.179443,0.630615
18:06:39,0.878174,-0.150146,0.56543
18:06:39,0.848633,-0.080322,0.578369
18:06:39,0.866943,-0.012939,0.687744
18:06:39,0.870117,0.01416,0.678223
18:06:39,0.7146,0.071289,0.747314
18:06:39,0.51416,0.119141,0.921143
18:06:39,0.333984,-0.165283,1.235352
18:06:39,0.517334,-0.477295,1.428711
18:06:39,0.233398,-0.71582,1.310547
18:06:39,0.260254,-0.918213,1.515137
18:06:39,0.847168,-0.577393,1.575684
18:06:39,0.295166,0.077881,1.192139
18:06:39,0.335205,0.094971,0.557373
18:06:39,0.984131,0.022217,0.563965
18:06:39,0.905029,-0.232422,0.093506
18:06:39,0.912109,-0.23999,0.517578
18:06:39,7.487549,-0.560059,2.172607
18:06:39,7.999756,0.200195,-0.199707
18:06:39,7.181641,2.348877,-2.073975
18:06:39,4.97168,3.634521,-0.500977
18:06:39,2.174072,1.943115,0.741943
18:06:39,0.666748,0.238525,0.97998
18:06:39,0.295654,0.128174,0.709961
18:06:39,-0.162354,0.38916,-0.140137
18:06:39,-0.881348,0.544678,-0.605957
18:06:39,-0.973389,0.552979,-0.205811
18:06:39,0.719727,1.888428,0.726807
18:06:40,1.236572,2.463867,-0.081055
18:06:40,0.454834,1.711182,-1.191895
18:06:40,0.572266,1.163818,-0.480713
18:06:40,0.71167,0.759033,0.17041
18:06:40,0.623047,0.574707,0.137451
18:06:40,0.901855,0.675781,0.205078
18:06:40,1.073242,0.763184,0.016357
18:06:40,1.10498,0.661621,-0.219482
18:06:40,1.319336,0.506592,-0.118164
18:06:40,1.679688,0.338135,0.154785
18:06:40,2.308594,0.219971,0.27832
18:06:40,3.07251,0.249023,0.020996
18:06:40,2.481201,0.281494,-0.333252
18:06:40,3.143066,0.609619,-0.253174
18:06:40,2.753662,0.233643,-0.776611
18:06:40,3.005859,-0.031494,-0.974609
18:06:40,3.421387,-0.320313,-1.172852
18:06:40,2.967529,-0.361816,-1.691162
18:06:40,2.121826,-0.08252,-2.242676
18:06:40,1.265625,0.091309,-2.570557
18:06:40,0.525635,0.184814,-3.020752
18:06:40,0.495361,0.309814,-3.329346
18:06:40,1.200195,0.23291,-3.490479
18:06:40,-0.152832,0.119141,-3.372803
18:06:40,-0.679443,0.270996,-4.155029
18:06:40,-0.991211,0.692627,-3.751465
18:06:40,-0.365723,0.795898,-1.535889
18:06:40,3.986816,-1.862793,1.842773
18:06:40,4.109863,-3.700684,0.85083
18:06:40,2.900879,-3.294678,-3.187256
18:06:40,7.121338,-5.227051,-1.138428
18:06:40,5.709473,-4.177979,0.766113
18:06:40,0.13208,-0.781982,-0.937012
18:06:40,0.115967,-0.310791,0.187012
18:06:40,1.546631,-0.145508,1.624512
18:06:40,1.178711,0.22583,0.655762
18:06:40,0.444824,0.45459,-0.295898
18:06:40,0.797852,0.776123,-0.195557
18:06:40,1.176758,0.953613,0.366211
18:06:40,0.696533,0.737061,0.34668
18:06:40,0.457275,0.558105,0.423828
18:06:40,0.492676,0.398438,0.543945
18:06:40,0.460938,0.183838,0.575439
18:06:40,0.593506,0.017334,0.545898
18:06:40,1.101563,-0.07666,0.604736
18:06:40,0.684814,-0.145752,0.150146
18:06:40,0.724365,-0.172607,0.493408
18:06:40,1.012695,-0.186523,0.65625
18:06:40,0.915527,-0.22998,0.479492
18:06:40,0.828369,-0.277588,0.436523
18:06:40,0.901855,-0.281738,0.466064
18:06:40,0.855957,-0.28125,0.44751
18:06:40,0.825439,-0.29248,0.525879
18:06:40,0.852051,-0.226318,0.485107
18:06:40,0.858398,-0.086182,0.381104
18:06:40,0.879639,0.010498,0.335938
18:06:40,0.835449,-0.001465,0.367676
18:06:40,0.799561,-0.010986,0.422363
18:06:40,0.785645,-0.032959,0.460449
18:06:40,0.768555,-0.10376,0.427002
18:06:40,0.809326,-0.175049,0.351318
18:06:40,0.919189,-0.230713,0.316406
18:06:40,1.005371,-0.313232,0.281982
18:06:40,1.042725,-0.406982,0.317383
18:06:40,0.943848,-0.368652,0.424316
18:06:40,0.72168,-0.23999,0.546631
18:06:40,0.996582,-0.161621,0.592041
18:06:40,1.365967,-0.120117,0.389648
18:06:40,0.944092,-0.168457,0.346924
18:06:40,0.859863,-0.232178,0.633057
18:06:40,0.847168,-0.320068,0.908203
18:06:40,0.755127,-0.270508,0.927734
18:06:40,0.466553,-0.122559,0.880615
18:06:40,0.653564,-0.38916,1.178467
18:06:40,0.282227,-0.512207,1.515137
18:06:40,0.054688,-0.924316,1.35498
18:06:40,0.140869,-0.850098,1.408691
18:06:40,0.090576,-0.298584,1.540283
18:06:40,0.311035,0.061768,0.945557
18:06:40,0.088135,0.387695,0.495361
18:06:40,0.378662,0.179688,0.096436
18:06:40,0.336426,-0.216064,0.502686
18:06:40,3.208984,-0.243652,0.915039
18:06:40,7.311768,0.405029,0.753906
18:06:40,7.999756,1.355713,-3.885498
18:06:40,7.999756,1.696777,-4.621094
18:06:40,4.211426,1.109375,-1.5896
18:06:40,1.059326,0.169922,0.262695
18:06:40,0.840576,-0.291992,1.009766
18:06:40,-0.26709,-0.166992,1.473633
18:06:40,-1.410889,0.130371,-0.334229
18:06:40,-1.951416,0.326904,-1.839355
18:06:40,-1.470703,0.334473,-0.395508
18:06:40,0.061035,0.349854,1.203613
18:06:40,1.610352,1.667236,1.044678
18:06:40,1.820801,2.810547,-0.581299
18:06:40,0.681885,1.991211,-1.700195
18:06:40,1.041992,1.421875,-0.655273
18:06:40,1.033447,0.727783,0.202637
18:06:40,0.682861,0.237305,0.202637
18:06:41,0.74707,0.087646,0.283691
18:06:41,0.989014,0.013916,0.247314
18:06:41,1.299805,-0.008789,0.137939
18:06:41,1.674805,-0.08252,0.106201
18:06:41,2.085449,-0.308105,0.077148
18:06:41,2.958984,-0.818604,-0.198975
18:06:41,2.561279,-0.452148,-0.858154
18:06:41,2.828857,-0.730469,-0.081543
18:06:41,2.508057,-0.636475,0.010498
18:06:41,2.657227,-0.268799,-0.450195
18:06:41,3.209717,-0.060059,-1.036377
18:06:41,3.134277,0.296631,-1.956543
18:06:41,2.616211,0.767578,-2.815918
18:06:41,1.601074,0.983887,-3.424805
18:06:41,1.124268,1.100342,-3.366699
18:06:41,0.851074,0.633545,-3.018555
18:06:41,0.963379,0.246582,-3.121338
18:06:41,0.671143,0.383301,-3.107422
18:06:41,-0.268311,0.152588,-3.094727
18:06:41,-1.566162,0.327148,-3.556641
18:06:41,-1.760498,0.637451,-2.788818
18:06:41,1.675293,0.578613,1.060303
18:06:41,4.773682,-2.200195,3.382813
18:06:41,1.905518,-3.660156,-0.630859
18:06:41,3.791748,-3.456299,-1.871826
18:06:41,7.441406,-3.828857,0.378662
18:06:41,1.094482,-0.949951,-1.809326
18:06:41,0.36792,-0.022461,-0.667236
18:06:41,3.186279,0.655518,1.291992
18:06:41,2.388916,1.295166,0.302246
18:06:41,0.071777,0.757568,-0.639404
18:06:41,0.17749,0.794189,0.104736
18:06:41,0.548828,0.656982,0.921387
18:06:41,0.542236,0.520752,1.091553
18:06:41,0.285645,0.389404,0.755615
18:06:41,0.169922,0.290283,0.490479
18:06:41,0.267334,0.233398,0.548096
18:06:41,0.431396,0.19043,0.67041
18:06:41,0.484375,0.11377,0.597168
18:06:41,0.696045,0.10498,0.626221
18:06:41,0.883301,0.154785,0.585938
18:06:41,1.38501,0.130127,0.475586
18:06:41,1.249756,0.031494,0.032471
18:06:41,0.803955,-0.074463,0.186523
18:06:41,0.596191,-0.103271,0.599609
18:06:41,0.546387,-0.136475,0.859131
18:06:41,0.406982,-0.190918,0.7771
18:06:41,0.759277,-0.20459,0.688477
18:06:41,1.320068,-0.241943,0.43457
18:06:41,0.926514,-0.117188,0.142822
18:06:41,0.783203,0.072754,0.416748
18:06:41,0.965576,0.036377,0.568848
18:06:41,0.856934,-0.054688,0.349365
18:06:41,0.943848,-0.031982,0.330566
18:06:41,0.964355,-0.056152,0.393066
18:06:41,0.862061,-0.176514,0.457764
18:06:41,0.828369,-0.260986,0.514893
18:06:41,0.79834,-0.270996,0.484619
18:06:41,0.779053,-0.263672,0.44873
18:06:41,0.772705,-0.237305,0.478271
18:06:41,0.714355,-0.193115,0.501953
18:06:41,0.625488,-0.188232,0.517334
18:06:41,0.984863,-0.202148,0.528809
18:06:41,2.503906,-0.218994,0.263184
18:06:41,0.717041,-0.370117,0.380615
18:06:41,0.940186,-0.398438,0.64917
18:06:41,0.889648,-0.578857,1.049072
18:06:41,0.671631,-0.653564,1.322998
18:06:41,0.398193,-0.68335,1.228271
18:06:41,0.014404,-0.502686,1.204346
18:06:41,0.211914,-0.123291,0.993164
18:06:41,-1.938965,-0.348145,1.221191
18:06:41,0.397705,0.866455,1.789551
18:06:41,1.140869,0.567627,0.378662
18:06:41,0.659912,0.19873,-0.517334
18:06:41,0.536133,-0.05835,-0.197266
18:06:41,1.12085,-0.308594,0.575684
18:06:41,2.956055,-0.679199,0.84375
18:06:41,6.760254,-0.501709,0.022461
18:06:41,7.999756,1.894287,-2.279541
18:06:41,7.895996,4.057861,-4.186035
18:06:41,4.939453,2.967041,-2.328369
18:06:41,1.403076,0.703613,0.189697
18:06:41,0.467773,-0.175537,0.782227
18:06:41,0.276123,-0.02417,0.94458
18:06:41,-0.836914,0.127686,0.026611
18:06:41,-2.319336,0.078125,-1.143555
18:06:41,-2.395264,0.075439,-0.855957
18:06:41,-0.739258,-0.024902,0.795654
18:06:41,0.383057,0.046143,1.142334
18:06:41,0.70459,0.160889,1.123291
18:06:41,1.069824,0.390869,0.958496
18:06:41,1.835449,0.586914,0.10498
18:06:41,2.58667,0.893555,0.30957
18:06:41,1.880371,0.647461,-1.171143
18:06:41,2.989014,0.884766,-1.13916
18:06:41,2.030762,0.015137,-1.031006
18:06:41,1.198486,-0.189941,-0.66626
18:06:41,1.686035,-0.86499,0.23877
18:06:41,1.412109,-1.12207,0.067871
18:06:42,1.013672,-0.861816,-0.377197
18:06:42,1.177002,-0.62207,-0.154785
18:06:42,1.371826,-0.618652,0.237305
18:06:42,2.421631,-0.374023,0.541992
18:06:42,3.231201,0.063721,-0.095703
18:06:42,3.473877,0.319336,-1.310303
18:06:42,3.691406,0.991943,-2.40918
18:06:42,2.905029,1.348633,-2.929932
18:06:42,1.73291,1.040039,-2.709717
18:06:42,0.963623,0.664795,-2.486572
18:06:42,0.787354,0.532471,-2.822754
18:06:42,1.040527,0.32251,-3.364746
18:06:42,0.65918,0.277588,-3.380615
18:06:42,-0.362305,0.229492,-3.387695
18:06:42,-1.605713,0.248291,-4.263428
18:06:42,-2.063965,0.548096,-3.597168
18:06:42,0.62085,0.263184,0.163086
18:06:42,4.39624,-1.687012,3.050781
18:06:42,3.317871,-3.827393,0.837158
18:06:42,2.076172,-3.017578,-2.832031
18:06:42,7.999756,-5.192871,-0.10083
18:06:42,2.60083,-1.877686,-2.522217
18:06:42,0.76709,-0.666992,-0.950195
18:06:42,2.413086,-0.224365,1.151855
18:06:42,1.414063,0.149414,0.704834
18:06:42,0.172607,0.197754,0.209717
18:06:42,0.467773,0.981201,-0.077881
18:06:42,0.500732,1.201416,0.213135
18:06:42,0.461182,1.075684,0.493408
18:06:42,0.387695,0.8125,0.569092
18:06:42,0.318115,0.579346,0.637695
18:06:42,0.312744,0.371582,0.60498
18:06:42,0.386963,0.233887,0.585693
18:06:42,0.501709,0.134766,0.543701
18:06:42,0.615479,0.067627,0.517334
18:06:42,0.892334,0.003906,0.535156
18:06:42,1.017578,-0.038574,0.424561
18:06:42,0.834473,-0.054688,0.336914
18:06:42,0.825928,-0.064697,0.411621
18:06:42,0.915283,-0.156494,0.530762
18:06:42,0.907959,-0.270508,0.529053
18:06:42,0.807129,-0.325928,0.491943
18:06:42,0.735107,-0.323242,0.562744
18:06:42,0.791016,-0.278809,0.577637
18:06:42,0.800781,-0.221436,0.473633
18:06:42,0.788574,-0.169434,0.470215
18:06:42,0.888184,-0.145752,0.521729
18:06:42,1.011963,-0.101807,0.413818
18:06:42,1.056152,-0.052002,0.25293
18:06:42,0.98584,-0.067627,0.27124
18:06:42,0.858643,-0.105713,0.427734
18:06:42,0.80957,-0.150879,0.522949
18:06:42,0.839844,-0.175049,0.563721
18:06:42,0.797607,-0.170166,0.533203
18:06:42,0.873535,-0.15625,0.579346
18:06:42,1.03125,-0.171631,0.563232
18:06:42,0.875977,-0.15625,0.608398
18:06:42,0.863037,-0.17334,0.682129
18:06:42,0.77124,-0.116943,0.740723
18:06:42,0.790527,-0.057373,0.826904
18:06:42,0.665283,-0.147705,0.750732
18:06:42,0.629639,-0.253906,0.782959
18:06:42,0.456543,-0.13501,1.181885
18:06:42,-0.174805,-0.224121,1.722168
18:06:42,0.002197,-0.26416,1.359375
18:06:42,0.030762,-0.414063,1.489502
18:06:42,0.273926,-0.259277,2.054443
18:06:42,0.690918,-0.263428,0.403564
18:06:42,1.276611,-0.248291,0.074951
18:06:42,0.812744,-0.19751,0.363281
18:06:42,-0.004395,-0.118652,1.240234
18:06:42,4.716553,-0.316406,2.10791
18:06:42,7.999756,-0.205078,0.582764
18:06:42,7.856689,2.209961,-2.007813
18:06:42,5.641602,4.23877,-1.841553
18:06:42,2.272217,2.468994,0.703613
18:06:42,0.541016,0.23999,1.179443
18:06:42,0.176514,-0.103271,0.993408
18:06:42,-0.286133,0.270752,0.071045
18:06:42,-1.366699,0.349121,-0.458496
18:06:42,-1.613037,0.509033,-0.128906
18:06:42,-0.334961,0.956299,0.536865
18:06:42,1.098145,1.97583,0.693115
18:06:42,0.876953,1.820801,-0.542969
18:06:42,0.463135,1.178467,-0.816895
18:06:42,0.768555,0.791748,0.039063
18:06:42,0.609863,0.365234,0.168457
18:06:42,0.686523,0.152588,0.364746
18:06:42,0.964844,0.055664,0.418213
18:06:42,1.35791,0.009521,0.456543
18:06:42,1.804688,-0.01001,0.266357
18:06:42,1.746582,-0.288086,-0.015625
18:06:42,2.862793,-1.356934,-0.086426
18:06:42,2.580811,-1.30249,-1.034424
18:06:42,2.221191,-1.169189,-1.005371
18:06:42,2.52832,-1.579346,0.054199
18:06:42,2.446777,-1.56543,0.319336
18:06:42,2.325439,-1.204834,-0.380859
18:06:42,2.407227,-0.911621,-1.081299
18:06:42,2.99292,-0.044678,-1.660645
18:06:43,3.192139,1.094727,-2.725342
18:06:43,2.12793,1.845459,-4.284668
18:06:43,0.826172,1.94873,-4.756104
18:06:43,-0.119385,1.20874,-3.958984
18:06:43,-0.881836,0.646973,-3.843506
18:06:43,-1.541016,0.729004,-5.358643
18:06:43,-1.781006,0.595459,-5.103027
18:06:43,-1.045898,0.401611,-1.717529
18:06:43,2.834473,-1.616699,0.756592
18:06:43,7.704834,-4.959961,3.520264
18:06:43,3.447021,-4.186035,-1.908203
18:06:43,7.868652,-6.475098,-3.430908
18:06:43,2.715332,-2.103516,-4.509277
18:06:43,1.155273,-1.107666,-0.2146
18:06:43,1.154053,-0.53833,0.797852
18:06:43,0.595703,-0.43042,1.567871
18:06:43,-0.314453,-0.225098,1.005371
18:06:43,-0.374023,-0.009521,0.090576
18:06:43,-0.112305,0.603516,-0.345215
18:06:43,0.672607,1.48584,0.194824
18:06:43,0.910889,1.994385,0.27832
18:06:43,0.222412,1.317627,0.067871
18:06:43,0.195557,0.79541,0.523193
18:06:43,0.335938,0.512939,0.762207
18:06:43,0.314209,0.294434,0.635498
18:06:43,0.335938,0.139404,0.522217
18:06:43,0.481689,0.074463,0.525391
18:06:43,0.726563,0.099121,0.522461
18:06:43,0.869141,0.114014,0.462402
18:06:43,1.31543,0.024902,0.487793
18:06:43,1.577393,-0.178223,0.143311
18:06:43,1.052002,-0.320068,-0.092773
18:06:43,0.630127,-0.287109,0.388184
18:06:43,0.718994,-0.291504,0.905273
18:06:43,0.72583,-0.395508,0.812744
18:06:43,0.771484,-0.446289,0.350342
18:06:43,0.880859,-0.404541,0.32666
18:06:43,0.822998,-0.276611,0.563232
18:06:43,1.063477,-0.244629,0.495361
18:06:43,0.867676,-0.235352,0.268555
18:06:43,0.889648,-0.150879,0.437012
18:06:43,0.893555,-0.101318,0.451904
18:06:43,0.93457,-0.115967,0.29834
18:06:43,0.997803,-0.178467,0.341309
18:06:43,0.900635,-0.206055,0.495361
18:06:43,0.874512,-0.234131,0.580078
18:06:43,0.875732,-0.188232,0.62207
18:06:43,0.829834,-0.185791,0.726318
18:06:43,0.847656,-0.212646,0.784668
18:06:43,0.783691,-0.257324,0.693359
18:06:43,0.699951,-0.289551,0.7229
18:06:43,0.545166,-0.319092,0.841064
18:06:43,0.651611,-0.395508,1.05835
18:06:43,0.218262,-0.143066,1.060303
18:06:43,0.338623,0.106445,1.149414
18:06:43,-0.013672,-0.13501,1.185059
18:06:43,-0.056396,-0.783691,1.73999
18:06:43,0.253418,-0.12915,1.541992
18:06:43,0.285156,0.635254,0.856934
18:06:43,0.600586,0.380127,0.362549
18:06:43,0.883545,0.040527,-0.140625
18:06:43,0.099121,-0.193848,-0.232666
18:06:43,3.276611,-0.183838,1.818359
18:06:43,7.999756,-0.082275,2.040283
18:06:43,7.999756,1.144531,-1.481934
18:06:43,7.206543,4.200684,-2.792969
18:06:43,4.145996,4.982422,-1.611572
18:06:43,1.757813,2.310791,0.259277
18:06:43,0.030762,0.221191,0.372803
18:06:43,-0.212891,0.087891,0.5896
18:06:43,-0.958008,0.107178,0.136963
18:06:43,-1.867432,0.142334,-0.190674
18:06:43,-1.71167,0.14917,0.244141
18:06:43,-0.323486,0.222656,0.62793
18:06:43,0.321289,0.199951,0.905273
18:06:43,0.551758,0.157715,0.934814
18:06:43,0.810791,0.37207,0.624512
18:06:43,1.89624,0.902588,0.330566
18:06:43,1.86792,1.017334,0.070557
18:06:43,1.557861,0.979736,-0.944824
18:06:43,1.891602,0.876221,-0.61377
18:06:43,1.88208,0.248779,-0.540771
18:06:43,1.198975,-0.368652,-0.448975
18:06:43,1.816895,-1.456787,0.279785
18:06:43,1.858154,-1.517822,-0.156982
18:06:43,1.568848,-1.086182,-0.599609
18:06:43,1.781738,-0.902344,-0.092773
18:06:43,1.87207,-0.892578,0.39502
18:06:43,3.175781,-0.145996,0.10376
18:06:43,3.161133,0.538574,-0.914307
18:06:43,3.055664,1.5625,-2.213379
18:06:43,3.147461,2.570068,-3.585449
18:06:43,1.997803,2.13916,-3.831787
18:06:43,0.729736,0.855713,-3.049805
18:06:43,-0.437744,0.108643,-2.947266
18:06:43,-0.464844,0.333008,-3.664307
18:06:43,-0.529541,0.37915,-5.143066
18:06:43,-1.234375,0.541504,-5.968506
18:06:43,-2.516113,0.58252,-4.784424
18:06:43,1.049316,-0.983398,-1.214111
18:06:44,7.324707,-4.532959,2.914307
18:06:44,4.198486,-4.257324,-0.590332
18:06:44,7.999756,-5.090576,-1.878174
18:06:44,4.435547,-2.588135,-2.738525
18:06:44,0.420654,-0.738525,-1.541748
18:06:44,1.252197,-0.324707,0.839844
18:06:44,1.144775,-0.026367,1.32373
18:06:44,0.071045,0.037842,0.559814
18:06:44,-0.100342,0.335449,-0.15332
18:06:44,0.656738,1.159912,0.027344
18:06:44,0.869141,1.493896,0.28418
18:06:44,0.495605,1.160645,0.163086
18:06:44,0.326416,0.702881,0.385742
18:06:44,0.414307,0.431152,0.624268
18:06:44,0.476563,0.273926,0.617676
18:06:44,0.546387,0.178711,0.528076
18:06:44,0.719971,0.128906,0.475098
18:06:44,0.91748,0.078369,0.406006
18:06:44,1.130615,0.013184,0.379395
18:06:44,1.256836,-0.09668,0.196045
18:06:44,0.899658,-0.197266,0.150391
18:06:44,0.645996,-0.284912,0.533936
18:06:44,0.745605,-0.411133,0.819824
18:06:44,0.755859,-0.416016,0.62915
18:06:44,0.861816,-0.280029,0.383545
18:06:44,0.862061,-0.222656,0.475586
18:06:44,0.773193,-0.160645,0.526611
18:06:44,0.847412,0.048584,0.391113
18:06:44,0.997314,0.23584,0.217529
18:06:44,1.151611,0.244141,0.088623
18:06:44,0.932617,0.122559,0.201416
18:06:44,0.856201,-0.033203,0.441162
18:06:44,0.814209,-0.159424,0.493896
18:06:44,0.872803,-0.225342,0.516113
18:06:44,0.798584,-0.250244,0.500977
18:06:44,0.921631,-0.234375,0.546631
18:06:44,0.890625,-0.206055,0.501953
18:06:44,0.919434,-0.144531,0.479736
18:06:44,0.925781,-0.14502,0.563232
18:06:44,0.884277,-0.087891,0.636719
18:06:44,0.856934,-0.058105,0.612305
18:06:44,0.780273,-0.097412,0.627197
18:06:44,0.775146,-0.121094,0.669189
18:06:44,0.705811,-0.121338,0.699707
18:06:44,0.665771,-0.233887,0.891602
18:06:44,0.44873,-0.210693,1.147705
18:06:44,0.100098,0.030029,1.463623
18:06:44,0.012207,-0.133301,1.287109
18:06:44,0.223633,-0.563965,1.723877
18:06:44,0.241699,-0.365479,1.716553
18:06:44,0.354736,0.073975,0.706299
18:06:44,0.805176,0.082275,0.408203
18:06:44,0.897217,-0.147461,0.471436
18:06:44,-0.02124,-0.155029,0.380859
18:06:44,3.3125,-0.202881,0.836914
18:06:44,7.999756,-0.114746,0.346191
18:06:44,7.765137,1.730957,-1.830078
18:06:44,5.846191,3.765137,-1.714355
18:06:44,2.921875,3.010254,0.683105
18:06:44,0.874023,0.779541,0.882813
18:06:44,0.028076,0.056885,0.652588
18:06:44,-0.67041,0.401123,0.139648
18:06:44,-0.908203,0.547363,-0.468262
18:06:44,-0.877686,0.564453,-0.018555
18:06:44,-0.33374,0.608154,0.822998
18:06:44,0.525635,1.059082,0.830322
18:06:44,1.0271,1.416504,0.219482
18:06:44,0.659912,1.244141,-0.474365
18:06:44,0.781494,0.877197,-0.248779
18:06:44,0.904785,0.56543,0.0354
18:06:44,0.939453,0.275635,0.17334
18:06:44,1.103516,0.109619,0.227783
18:06:44,1.312744,0.01123,0.095459
18:06:44,1.309814,0.064209,-0.160645
18:06:44,3.234863,-0.716064,-0.211426
18:06:44,2.51001,-1.489502,-0.933594
18:06:44,1.95459,-1.468506,-0.989014
18:06:44,1.782471,-1.044922,-0.446045
18:06:44,1.430664,-0.826172,0.187012
18:06:44,1.703125,-0.822754,0.612549
18:06:44,2.269043,-0.831299,0.43457
18:06:44,3.016846,-0.294922,-0.473389
18:06:44,3.540283,0.745605,-2.125
18:06:44,3.220215,1.701416,-3.776855
18:06:44,2.088379,2.153809,-4.406738
18:06:44,1.018066,1.554443,-3.756104
18:06:44,0.404541,0.75293,-2.900879
18:06:44,0.273438,0.526855,-2.921143
18:06:44,-0.037842,0.337891,-3.161133
18:06:44,-1.483398,0.249512,-4.092285
18:06:44,-2.055908,0.331787,-5.230469
18:06:44,-0.76001,0.12207,-1.457031
18:06:44,2.586914,-1.046631,1.571533
18:06:44,7.149902,-4.316162,4.143066
18:06:44,0.42041,-1.788818,-2.262939
18:06:44,7.957031,-4.388184,-0.124512
18:06:44,4.27124,-2.19873,-2.223877
18:06:44,1.111084,-0.798096,-1.590332
18:06:44,2.551758,0.070313,0.576904
18:06:44,1.789307,0.140625,0.649658
18:06:45,0.298584,0.050049,0.41333
18:06:45,0.254639,0.603516,0.296143
18:06:45,0.450684,0.883301,0.247803
18:06:45,0.326172,0.831787,0.325928
18:06:45,0.288574,0.784668,0.534668
18:06:45,0.257813,0.65625,0.629883
18:06:45,0.268799,0.483643,0.634521
18:06:45,0.356445,0.336914,0.599365
18:06:45,0.512451,0.267822,0.570557
18:06:45,0.719482,0.259766,0.550293
18:06:45,0.833984,0.234375,0.46167
18:06:45,1.003174,0.17334,0.382324
18:06:45,1.009033,0.078857,0.288574
18:06:45,0.816895,-0.02832,0.291016
18:06:45,1.070801,-0.157959,0.499023
18:06:45,1.071777,-0.296631,0.481201
18:06:45,0.619141,-0.385498,0.412598
18:06:45,0.833008,-0.448242,0.641357
18:06:45,0.821289,-0.418701,0.630615
18:06:45,0.838135,-0.361084,0.510498
18:06:45,0.793213,-0.19751,0.411133
18:06:45,0.817383,-0.065674,0.466309
18:06:45,0.84668,0.045898,0.532715
18:06:45,0.865234,0.09668,0.455078
18:06:45,0.956055,0.093262,0.276367
18:06:45,1.000732,0.079102,0.248779
18:06:45,0.881836,0.00708,0.364258
18:06:45,0.838135,-0.081543,0.486816
18:06:45,0.950195,-0.161377,0.561035
18:06:45,0.851563,-0.198242,0.513428
18:06:45,0.923584,-0.220459,0.589355
18:06:45,0.907959,-0.19458,0.616699
18:06:45,0.873535,-0.183838,0.668457
18:06:45,0.819092,-0.196289,0.722412
18:06:45,0.77417,-0.22876,0.668457
18:06:45,0.696533,-0.15625,0.666748
18:06:45,0.596924,-0.153564,0.792236
18:06:45,0.652832,-0.031982,1.043701
18:06:45,0.28833,0.093018,1.273926
18:06:45,0.093506,0,1.270752
18:06:45,0.223877,-0.3396,1.125
18:06:45,0.466309,-0.693359,1.664551
18:06:45,0.591797,-0.503906,1.841797
18:06:45,0.33252,-0.010742,0.791504
18:06:45,0.674805,0.111572,0.298584
18:06:45,0.901367,-0.064941,0.255615
18:06:45,0.314697,-0.174561,0.61499
18:06:45,3.048584,-0.19165,1.423828
18:06:45,7.999756,-0.276367,0.027832
18:06:45,7.968506,1.075195,-1.924316
18:06:45,7.029785,3.166748,-1.804688
18:06:45,4.068359,3.25415,0.741455
18:06:45,1.685303,1.395752,1.108643
18:06:45,0.361816,0.186279,0.575439
18:06:45,-0.260254,0.303467,-0.242188
18:06:45,-0.932617,0.602783,-0.635742
18:06:45,-0.637207,0.68042,-0.604736
18:06:45,0.637451,2.144531,0.640137
18:06:45,0.261475,1.496094,-0.394531
18:06:45,0.145752,1.015137,-0.477539
18:06:45,0.437744,0.699219,0.073242
18:06:45,0.410889,0.425537,0.091309
18:06:45,0.563477,0.396484,0.183594
18:06:45,0.964844,0.459473,0.376465
18:06:45,1.18335,0.484131,0.355225
18:06:45,1.234131,0.386963,0.167969
18:06:45,1.242676,0.166992,-0.076416
18:06:45,1.446289,-0.084717,-0.023926
18:06:45,1.93335,-0.39917,0.069336
18:06:45,2.405518,-0.753174,-0.600098
18:06:45,2.474365,-0.849609,-0.924316
18:06:45,2.755859,-0.918213,-0.191162
18:06:45,2.880859,-0.794434,-0.218018
18:06:45,2.498291,-0.249512,-1.310059
18:06:45,2.211426,0.013428,-1.899658
18:06:45,2.245605,0.579346,-1.987549
18:06:45,2.720459,1.463623,-2.564941
18:06:45,1.651367,1.511719,-3.654541
18:06:45,1.334961,1.664307,-4.013672
18:06:45,0.711914,0.974609,-3.194336
18:06:45,0.364258,0.42749,-2.668701
18:06:45,-0.568604,0.345215,-2.913086
18:06:45,-1.45459,0.290771,-3.936279
18:06:45,-2.125488,0.641846,-4.132813
18:06:45,-0.518311,0.261719,-1.250488
18:06:45,2.846436,-0.642334,0.9646
18:06:45,5.955811,-4.652344,3.377197
18:06:45,7.242432,-4.636963,-1.129883
18:06:45,4.608154,-2.617676,-4.94458
18:06:45,3.752686,-1.688965,-1.780029
18:06:45,2.077148,-0.715332,-0.035645
18:06:45,0.846924,-0.133057,0.725586
18:06:45,0.199463,-0.068848,1.036621
18:06:45,-0.144043,-0.047363,1.022461
18:06:45,-0.019287,0.064453,0.654053
18:06:45,0.185791,0.406006,0.425781
18:06:45,0.354248,0.714111,0.322754
18:06:45,0.540771,0.884766,0.372803
18:06:45,0.69458,0.924072,0.399902
18:06:45,0.707764,0.719727,0.39917
18:06:46,0.65625,0.437744,0.447266
18:06:46,0.703125,0.266357,0.481201
18:06:46,0.766113,0.132813,0.493408
18:06:46,0.791504,0.020508,0.418213
18:06:46,0.940674,-0.048584,0.414551
18:06:46,1.317871,-0.165039,0.380127
18:06:46,1.146973,-0.270264,0.138916
18:06:46,0.401855,-0.323242,0.280273
18:06:46,0.901855,-0.463379,0.791016
18:06:46,0.729248,-0.446289,0.692627
18:06:46,0.833008,-0.37085,0.427979
18:06:46,0.890625,-0.286377,0.390381
18:06:46,0.822266,-0.254395,0.45874
18:06:46,0.813721,-0.129395,0.466553
18:06:46,0.860107,0.002197,0.405029
18:06:46,0.889893,0.075439,0.376221
18:06:46,0.893799,0.122559,0.344482
18:06:46,0.831299,0.125244,0.356445
18:06:46,0.859131,0.136719,0.367188
18:06:46,0.822021,0.026367,0.41748
18:06:46,0.796387,-0.046387,0.51123
18:06:46,0.770508,-0.102783,0.561035
18:06:46,1.046631,-0.188232,0.565674
18:06:46,0.986084,-0.201172,0.465576
18:06:46,0.922363,-0.16748,0.49585
18:06:46,0.940186,-0.141113,0.614746
18:06:46,0.872559,-0.144043,0.64917
18:06:46,0.853027,-0.171387,0.638184
18:06:46,0.796875,-0.186768,0.611084
18:06:46,0.653564,-0.302002,0.761475
18:06:46,0.410156,-0.384277,1.113525
18:06:46,0.39917,-0.445313,1.330811
18:06:46,0.436035,-0.378174,1.303223
18:06:46,0.137207,-0.116211,1.4104
18:06:46,0.084229,-0.252197,1.455566
18:06:46,0.881104,-0.642334,1.154053
18:06:46,1.403564,-0.564209,0.871338
18:06:46,0.234375,-0.141357,0.370361
18:06:46,0.664551,-0.334717,0.626465
18:06:46,0.322998,-0.249756,0.66333
18:06:46,1.405029,-0.081055,1.31958
18:06:46,4.362793,1.116455,-0.467529
18:06:46,7.999756,3.434326,0.365234
18:06:46,7.916016,1.512451,-5.823242
18:06:46,6.095215,0.474121,-2.554199
18:06:46,1.915039,0.233643,-0.352539
18:06:46,0.975586,-0.112549,0.79248
18:06:46,0.722656,-0.321045,1.332275
18:06:46,-0.563477,0.276367,0.741943
18:06:46,-1.253662,0.503662,-1.266357
18:06:46,-1.266113,0.541016,-1.599609
18:06:46,-0.576904,0.161133,0.161865
18:06:46,2.07373,2.92627,1.405273
18:06:46,1.420166,3.422119,-1.101807
18:06:46,0.09375,2.220947,-2.328613
18:06:46,0.57373,1.590332,-0.729004
18:06:46,0.727295,0.911377,0.106201
18:06:46,0.517334,0.508301,0.11792
18:06:46,0.710938,0.672119,0.155273
18:06:46,0.943604,0.792725,0.030518
18:06:46,1.026123,0.710938,-0.086182
18:06:46,1.132813,0.610596,-0.106934
18:06:46,1.611328,0.588379,0.154785
18:06:46,2.253662,0.681152,0.398438
18:06:46,2.598145,0.9104,0.007324
18:06:46,2.805908,1.165771,-0.648438
18:06:46,2.783936,1.076904,-1.038574
18:06:46,2.826904,0.489014,-1.082764
18:06:46,3.431885,-0.237549,-1.022949
18:06:46,3.118164,-0.43042,-1.634521
18:06:46,2.23999,-0.271729,-2.400879
18:06:46,1.153076,-0.17041,-2.790283
18:06:46,0.71167,-0.100586,-2.732178
18:06:46,0.932129,-0.06543,-2.743164
18:06:46,1.032471,-0.188477,-2.969971
18:06:46,1.245605,-0.311279,-3.024902
18:06:46,-0.396484,0.301514,-2.587646
18:06:46,-0.993896,0.350342,-3.713379
18:06:46,-0.913818,0.720703,-3.242676
18:06:46,0.584473,0.63501,-0.365723
18:06:46,3.333984,-1.845459,2.307373
18:06:46,1.323975,-2.626953,-0.448486
18:06:46,4.408447,-3.084229,-1.082764
18:06:46,7.999756,-5.842285,0.281738
18:06:46,3.131592,-3.504395,-2.49292
18:06:46,0.070313,-0.787598,-1.339844
18:06:46,0.957031,-0.510498,1.459473
18:06:46,0.879639,-0.237061,1.64917
18:06:46,0.160156,0.060059,0.864746
18:06:46,-0.200928,0.19165,0.175049
18:06:46,0.140381,0.462158,-0.044189
18:06:46,0.902344,0.773682,0.283447
18:06:46,1.287842,0.820068,0.447998
18:06:46,0.953369,0.562744,0.164307
18:06:46,0.888916,0.327637,0.311279
18:06:46,1.044434,0.217773,0.480469
18:06:46,0.80249,0.120117,0.431885
18:06:46,0.633545,0.031982,0.446777
18:06:46,0.715332,-0.062256,0.536865
18:06:46,0.736816,-0.167236,0.622559
18:06:47,0.737305,-0.254639,0.496338
18:06:47,0.803711,-0.317627,0.445313
18:06:47,1.012695,-0.293701,0.414795
18:06:47,1.200439,-0.265137,0.337891
18:06:47,0.921143,-0.28125,0.265869
18:06:47,0.849854,-0.281982,0.567627
18:06:47,0.711914,-0.261719,0.601807
18:06:47,0.681885,-0.105957,0.479492
18:06:47,0.913818,0.049561,0.321533
18:06:47,1.023438,0.035889,0.239258
18:06:47,0.923828,0.057129,0.23877
18:06:47,0.935547,0.06665,0.280029
18:06:47,0.980225,-0.025146,0.335938
18:06:47,0.901611,-0.101563,0.326416
18:06:47,0.880615,-0.172363,0.359375
18:06:47,0.877197,-0.242432,0.430908
18:06:47,0.885498,-0.295166,0.475586
18:06:47,0.929443,-0.333008,0.487793
18:06:47,0.985596,-0.351563,0.532959
18:06:47,0.999756,-0.378906,0.585938
18:06:47,0.989502,-0.392822,0.54541
18:06:47,0.912109,-0.354004,0.510498
18:06:47,0.831543,-0.305908,0.624268
18:06:47,0.840576,-0.343262,0.760986
18:06:47,0.697266,-0.420654,0.821533
18:06:47,0.521973,-0.425049,1.00415
18:06:47,0.387451,-0.582031,1.32251
18:06:47,0.106689,-0.751221,1.392334
18:06:47,0.302246,-0.418701,1.231689
18:06:47,-0.551758,-0.305176,1.076904
18:06:47,-2.516357,-0.209717,0.602539
18:06:47,1.896484,0.981201,1.411865
18:06:47,1.363281,0.062988,-0.353516
18:06:47,0.536865,-0.127441,-0.594727
18:06:47,2.137695,-0.498779,1.201172
18:06:47,5.524658,-2.289307,3.012939
18:06:47,4.990234,-1.270264,-0.420654
18:06:47,7.714111,-0.15625,-1.715332
18:06:47,7.999756,1.992676,-4.207031
18:06:47,4.945068,1.875,-1.825684
18:06:47,1.755371,0.491699,0.059326
18:06:47,0.782715,-0.167969,0.882568
18:06:47,0.462891,-0.158936,1.127441
18:06:47,0.031006,-0.102051,0.394043
18:06:47,-0.526611,0.142578,-1.143311
18:06:47,-1.125,0.265869,-0.831299
18:06:47,-0.800537,0.247314,0.316895
18:06:47,-0.012939,0.302734,0.598389
18:06:47,0.349365,0.38501,0.423096
18:06:47,0.60498,0.616699,0.355225
18:06:47,1.266846,1.226318,0.081787
18:06:47,1.723389,1.604492,-0.141602
18:06:47,1.422607,1.244629,-0.268799
18:06:47,1.247559,0.807129,-0.4104
18:06:47,1.43335,0.471191,-0.036621
18:06:47,1.352539,-0.02417,0.080078
18:06:47,1.267334,-0.347656,0.12793
18:06:47,1.67041,-0.830322,0.05542
18:06:47,2.415039,-1.226318,-0.107666
18:06:47,2.195313,-0.519531,-0.699951
18:06:47,2.984375,-0.68042,-0.020264
18:06:47,2.858887,-0.443848,-0.30542
18:06:47,2.726074,-0.001221,-1.182373
18:06:47,2.713623,0.296875,-2.047119
18:06:47,2.563477,0.498291,-2.699219
18:06:47,2.347168,0.833008,-3.228271
18:06:47,1.621582,0.820557,-3.343994
18:06:47,1.225098,0.532959,-3.043213
18:06:47,0.952393,0.311768,-3.05957
18:06:47,0.932861,0.231445,-3.180664
18:06:47,-0.306152,0.053467,-2.519775
18:06:47,-1.036133,0.046631,-3.903809
18:06:47,-1.328369,0.341064,-3.148926
18:06:47,-0.704102,0.513916,-0.937744
18:06:47,4.978027,-1.175049,3.940918
18:06:47,3.716797,-1.907471,2.710693
18:06:47,-0.558105,-1.090332,-2.269775
18:06:47,5.387695,-4.54541,-0.294678
18:06:47,6.252441,-4.456787,-1.044678
18:06:47,1.567627,-0.942139,-2.588623
18:06:47,1.696045,-0.3396,0.240967
18:06:47,1.516846,-0.115967,0.963379
18:06:47,0.364746,-0.05835,0.749268
18:06:47,-0.174072,0.060547,0.486328
18:06:47,0.129883,0.403076,0.388184
18:06:47,0.426025,0.810059,0.386719
18:06:47,0.474854,0.938965,0.267334
18:06:47,0.575439,0.959229,0.39917
18:06:47,0.58374,0.830566,0.432373
18:06:47,0.507568,0.532715,0.463867
18:06:47,0.541748,0.371338,0.506348
18:06:47,0.619873,0.244873,0.517334
18:06:47,0.685791,0.146729,0.511719
18:06:47,0.84668,0.090332,0.450439
18:06:47,0.796387,0.031738,0.422119
18:06:47,0.88623,-0.010254,0.376221
18:06:47,0.905518,-0.09668,0.387207
18:06:47,0.903564,-0.184814,0.421143
18:06:47,0.936279,-0.292236,0.39209
18:06:47,0.903076,-0.359375,0.415527
18:06:48,0.965088,-0.42041,0.430908
18:06:48,1.006104,-0.473633,0.374268
18:06:48,0.978027,-0.504883,0.351318
18:06:48,0.902832,-0.482178,0.376221
18:06:48,0.837891,-0.39917,0.415771
18:06:48,0.821533,-0.311279,0.412354
18:06:48,0.832764,-0.245361,0.416016
18:06:48,0.860596,-0.185547,0.414795
18:06:48,0.888916,-0.12207,0.404297
18:06:48,0.888672,-0.064453,0.402344
18:06:48,0.872559,-0.031494,0.422363
18:06:48,0.78125,-0.032227,0.428711
18:06:48,0.651855,-0.05542,0.452637
18:06:48,1.125244,-0.09082,0.450928
18:06:48,1.173828,-0.199951,0.391113
18:06:48,0.315918,-0.358398,0.617432
18:06:48,1.043457,-0.411133,0.779785
18:06:48,1.084229,-0.423828,0.48291
18:06:48,0.954102,-0.361328,0.446045
18:06:48,1.025391,-0.265137,0.616455
18:06:48,0.87207,-0.277344,0.750488
18:06:48,0.579346,-0.009766,0.903564
18:06:48,-0.045654,-0.216797,1.640869
18:06:48,-0.179199,-0.284424,1.711914
18:06:48,0.335449,-0.344971,1.318848
18:06:48,0.656494,-0.163086,1.103271
18:06:48,0.27832,0.209473,-0.065918
18:06:48,1.413574,-0.224121,0.501709
18:06:48,0.94043,-0.289795,0.219727
18:06:48,1.660645,-0.290527,1.182861
18:06:48,3.519043,-0.313721,0.494873
18:06:48,7.217041,-0.032959,-0.484131
18:06:48,7.999756,2.689697,-4.226074
18:06:48,6.695068,2.74707,-3.507324
18:06:48,2.925537,1.033936,-0.575195
18:06:48,0.873779,0.033203,0.793701
18:06:48,0.618652,-0.218994,1.50415
18:06:48,0.109375,-0.141113,1.30957
18:06:48,-0.87207,0.005615,-0.052979
18:06:48,-2.013184,0.222412,-0.955811
18:06:48,-1.698242,0.295654,-0.083252
18:06:48,-0.119873,0.17334,0.977539
18:06:48,0.596924,0.155762,1.057129
18:06:48,0.761475,0.287109,1.035645
18:06:48,1.484863,0.660156,0.62207
18:06:48,2.571289,1.092773,0.137451
18:06:48,2.258545,1.171875,-0.573242
18:06:48,2.293213,1.033203,-1.610107
18:06:48,2.961914,0.271973,-0.970215
18:06:48,1.366699,-0.184326,-0.869141
18:06:48,1.266846,-0.125,-0.304688
18:06:48,1.261475,-0.318848,0.077881
18:06:48,1.278564,-0.571533,0.184326
18:06:48,1.543457,-0.438965,-0.043945
18:06:48,1.895752,0.143799,-0.45752
18:06:48,2.271973,0.459961,-0.829102
18:06:48,2.748535,0.380615,-1.102783
18:06:48,3.386475,0.229248,-1.504883
18:06:48,3.244873,0.121826,-2.240967
18:06:48,2.739014,-0.012939,-2.852295
18:06:48,1.790527,-0.129639,-3.126221
18:06:48,1.023193,-0.112549,-3.116211
18:06:48,0.710938,-0.127441,-3.068359
18:06:48,0.801025,-0.300781,-3.132813
18:06:48,1.134766,-0.409912,-3.251465
18:06:48,-0.104248,0.027832,-2.598145
18:06:48,-1.445801,0.414063,-3.200928
18:06:48,-1.385498,0.62793,-2.669434
18:06:48,0.217529,0.647217,0.456299
18:06:48,3.442383,-1.639404,2.858643
18:06:48,2.259766,-2.737549,0.689697
18:06:48,2.016846,-3.005127,-2.078125
18:06:48,6.475342,-5.477295,-1.357422
18:06:48,3.687988,-4.026123,-1.982422
18:06:48,0.082764,-0.887939,-1.566406
18:06:48,1.276611,-0.806885,1.599365
18:06:48,0.601318,-0.269531,1.361328
18:06:48,0.079346,0.241943,0.443359
18:06:48,0.159912,0.42334,-0.149902
18:06:48,0.744629,0.7146,-0.017822
18:06:48,1.225342,0.822754,0.283203
18:06:48,1.256836,0.72168,0.272705
18:06:48,0.852051,0.433594,0.178223
18:06:48,0.779541,0.324951,0.411133
18:06:48,0.767822,0.25415,0.482178
18:06:48,0.644775,0.09082,0.531738
18:06:48,0.634033,0,0.459961
18:06:48,1.348877,-0.112549,0.689941
18:06:48,0.868896,-0.253418,0.250488
18:06:48,0.900391,-0.480225,0.382324
18:06:48,0.796875,-0.432373,0.531494
18:06:48,0.709473,-0.32251,0.576904
18:06:48,0.734131,-0.321045,0.591309
18:06:48,0.938721,-0.411377,0.447998
18:06:48,0.858398,-0.333008,0.424072
18:06:48,0.841064,-0.146484,0.46875
18:06:48,0.888672,-0.057129,0.418701
18:06:48,0.885986,-0.015869,0.314941
18:06:48,0.892334,0.009521,0.307373
18:06:48,0.793213,-0.012939,0.406738
18:06:49,0.712158,-0.038818,0.490234
18:06:49,0.783203,-0.047852,0.498291
18:06:49,0.928711,-0.133301,0.45752
18:06:49,1.023193,-0.252686,0.365234
18:06:49,0.999512,-0.242676,0.29126
18:06:49,0.921143,-0.223633,0.428955
18:06:49,0.82373,-0.249023,0.595947
18:06:49,0.898193,-0.239502,0.642334
18:06:49,0.895752,-0.263184,0.590332
18:06:49,0.89502,-0.266357,0.611328
18:06:49,0.799561,-0.38623,0.637939
18:06:49,0.756348,-0.373779,0.745361
18:06:49,0.682373,-0.35791,0.782227
18:06:49,0.638184,-0.343506,0.765381
18:06:49,0.506348,-0.344238,0.772949
18:06:49,0.342285,-0.301025,1.134521
18:06:49,0.229248,-0.565918,1.502441
18:06:49,0.2146,-0.483643,1.112549
18:06:49,-0.091064,-0.084473,1.61499
18:06:49,0.293945,0.157471,1.086182
18:06:49,0.507568,0.380615,0.839844
18:06:49,0.457275,0.134521,0.518066
18:06:49,0.901123,-0.192139,0.048828
18:06:49,0.700439,-0.398682,0.075684
18:06:49,2.514893,0.114014,2.199463
18:06:49,6.588867,0.297607,0.600342
18:06:49,7.999756,1.203613,-1.971436
18:06:49,7.059082,2.936035,-1.944824
18:06:49,4.087891,3.022949,-0.23291
18:06:49,1.741699,1.232178,1.471436
18:06:49,0.569092,-0.047607,1.702637
18:06:49,0.125977,-0.12915,1.088867
18:06:49,-0.117432,0.062988,-0.014648
18:06:49,-0.374023,0.310791,-0.657715
18:06:49,-0.364746,0.324463,-0.00415
18:06:49,0.027344,0.252197,0.731934
18:06:49,0.281982,0.215088,0.806885
18:06:49,0.374756,0.125,0.452637
18:06:49,0.394775,0.050537,0.356934
18:06:49,0.751953,0.130127,0.449463
18:06:49,1.678711,0.351563,0.425049
18:06:49,2.217285,0.36377,0.571533
18:06:49,1.665771,0.392578,-0.542725
18:06:49,2.398926,0.365967,-0.763184
18:06:49,2.475342,-0.420166,-0.28833
18:06:49,2.138428,-1.071777,-0.452637
18:06:49,1.675781,-0.891846,-0.567871
18:06:49,1.494873,-0.788818,-0.263672
18:06:49,1.338135,-0.661377,0.101807
18:06:49,1.213867,-0.480957,0.135498
18:06:49,2.474609,0.203125,0.053467
18:06:49,2.87085,0.501465,-0.500244
18:06:49,3.367432,1.168945,-1.701904
18:06:49,3.161865,1.766846,-3.327393
18:06:49,2.813965,1.37915,-3.970947
18:06:49,2.044678,0.641113,-3.654297
18:06:49,1.087158,0.276611,-3.370605
18:06:49,0.660156,0.365234,-3.311523
18:06:49,-0.295166,0.244385,-3.374512
18:06:49,-1.421143,0.217529,-4.82959
18:06:49,-1.858643,0.749756,-5.039307
18:06:49,-1.687744,1,-2.694824
18:06:49,2.41333,-1.164063,0.398926
18:06:49,5.23584,-4.323242,1.714355
18:06:49,4.419922,-5.733398,-1.275391
18:06:49,7.746338,-6.248291,-2.754395
18:06:49,2.585938,-2.778564,-2.754395
18:06:49,0.327148,-0.917236,0.172607
18:06:49,0.381348,-0.337646,1.412842
18:06:49,0.197998,0.173584,1.371094
18:06:49,0.036865,0.196533,0.771973
18:06:49,0.162354,0.237549,0.121094
18:06:49,0.398438,0.46875,-0.055176
18:06:49,0.740967,0.609863,0.348389
18:06:49,1.148193,0.533936,0.501709
18:06:49,1.077148,0.512695,0.280518
18:06:49,0.913818,0.309082,0.236572
18:06:49,0.98584,0.189941,0.398682
18:06:49,0.869385,0.112549,0.443848
18:06:49,0.850342,0.051514,0.380371
18:06:49,0.694824,-0.115723,0.509766
18:06:49,0.557373,-0.253662,0.536621
18:06:49,0.554199,-0.401611,0.628418
18:06:49,0.61084,-0.474121,0.730713
18:06:49,0.677246,-0.400391,0.663086
18:06:49,0.792969,-0.275879,0.496338
18:06:49,0.885986,-0.18042,0.442871
18:06:49,0.940674,-0.20459,0.44873
18:06:49,0.946777,-0.172852,0.376221
18:06:49,0.953857,-0.069092,0.280518
18:06:49,0.966064,-0.109863,0.31958
18:06:49,0.908936,-0.201172,0.421875
18:06:49,0.858398,-0.230225,0.41333
18:06:49,0.863525,-0.278809,0.392334
18:06:49,0.871338,-0.350098,0.400635
18:06:49,0.866455,-0.362793,0.401123
18:06:49,0.855957,-0.328369,0.44043
18:06:49,0.756592,-0.264893,0.454102
18:06:49,0.766357,-0.220947,0.527588
18:06:49,1.000488,-0.179199,0.466553
18:06:50,1.306885,-0.176758,0.265869
18:06:50,0.933105,-0.240234,0.370605
18:06:50,0.980469,-0.269043,0.692871
18:06:50,0.85791,-0.328857,0.891846
18:06:50,0.785156,-0.389404,0.861816
18:06:50,0.714111,-0.375977,0.79541
18:06:50,0.597412,-0.367676,0.856201
18:06:50,0.507813,-0.422119,1.146729
18:06:50,0.244141,-0.716064,1.446533
18:06:50,0.131104,-1.322754,2.002441
18:06:50,-0.397705,-0.928711,1.794678
18:06:50,0.320068,-0.276855,1.19873
18:06:50,0.655518,0.110596,0.592773
18:06:50,0.725098,0.135742,0.195313
18:06:50,0.37085,-0.022461,0.037109
18:06:50,1.615234,-0.709229,2.842773
18:06:50,4.315186,-1.133057,1.556396
18:06:50,7.174561,-0.117432,-1.136719
18:06:50,7.999756,0.804199,-3.4729
18:06:50,6.971191,0.697266,-3.484619
18:06:50,3.174316,0.202148,-0.209473
18:06:50,0.927246,-0.274414,1.000732
18:06:50,0.752441,-0.364014,1.466309
18:06:50,0.380127,-0.260742,0.949219
18:06:50,-0.230225,0.0979,-0.809814
18:06:50,-1.334961,0.472168,-1.89209
18:06:50,-1.575928,0.518799,-0.654541
18:06:50,-0.001465,1.047607,0.844482
18:06:50,1.469727,2.522705,0.625244
18:06:50,1.112793,2.168213,-1.117188
18:06:50,0.521484,1.555908,-1.066895
18:06:50,0.97876,1.05127,0.19751
18:06:50,0.726074,0.519531,0.469482
18:06:50,0.750977,0.373779,0.546631
18:06:50,0.958008,0.347412,0.459473
18:06:50,1.118896,0.248535,0.327393
18:06:50,1.321533,0.115723,0.213867
18:06:50,1.496582,0.014648,-0.000244
18:06:50,1.979248,-0.161377,0.047607
18:06:50,3.937988,-1.456543,0.389404
18:06:50,4.238525,-1.477295,-1.142578
18:06:50,3.677246,-1.150635,-2.401611
18:06:50,2.668457,-0.972656,-2.138916
18:06:50,1.996094,-0.286865,-1.779297
18:06:50,1.882568,0.414063,-2.134766
18:06:50,2.124023,1.191895,-3.020508
18:06:50,1.752686,1.769775,-4.0625
18:06:50,1.129883,1.644775,-4.172607
18:06:50,0.627197,0.880127,-3.407959
18:06:50,0.297363,0.275146,-2.92749
18:06:50,0.376221,0.282227,-2.697021
18:06:50,-0.086914,0.249023,-2.592529
18:06:50,-0.906738,0.139648,-2.4021
18:06:50,-0.986816,0.32959,-1.4375
18:06:50,1.442871,-0.953857,0.671875
18:06:50,4.053955,-3.277344,1.862061
18:06:50,3.391357,-4.310059,-0.164795
18:06:50,7.424316,-6.26416,-0.330811
18:06:50,0.918701,-1.72168,-3.103027
18:06:50,2.313965,-1.29541,-0.158936
18:06:50,1.932129,-0.661621,0.654785
18:06:50,0.813721,-0.085205,0.230469
18:06:50,0.551514,0.140381,0.266113
18:06:50,0.578369,0.344971,0.265381
18:06:50,0.812012,0.974609,0.210205
18:06:50,0.605713,1.162842,0.026123
18:06:50,0.392822,0.954834,0.25293
18:06:50,0.379639,0.678467,0.637451
18:06:50,0.316895,0.463379,0.744141
18:06:50,0.232178,0.327148,0.687256
18:06:50,0.275879,0.22168,0.5625
18:06:50,0.446045,0.184326,0.573242
18:06:50,0.693848,0.195068,0.625977
18:06:50,0.872559,0.228516,0.557129
18:06:50,1.120605,0.19043,0.351807
18:06:50,1.456543,0.007568,0.240234
18:06:50,1.07251,-0.152832,0.150635
18:06:50,0.643066,-0.182617,0.356934
18:06:50,0.712646,-0.162109,0.712646
18:06:50,0.682373,-0.202637,0.76001
18:06:50,0.65332,-0.284424,0.586426
18:06:50,0.903076,-0.302979,0.438232
18:06:50,1.02417,-0.220459,0.380371
18:06:50,0.847656,-0.105713,0.382813
18:06:50,0.82251,-0.049072,0.503662
18:06:50,0.847656,-0.006592,0.502197
18:06:50,0.874268,-0.049316,0.421143
18:06:50,0.900879,-0.127441,0.427002
18:06:50,0.866943,-0.166992,0.483887
18:06:50,0.910889,-0.188232,0.538086
18:06:50,0.790771,-0.172363,0.555664
18:06:50,0.850586,-0.186279,0.62915
18:06:50,0.904541,-0.154785,0.625977
18:06:50,0.797119,-0.140625,0.656006
18:06:50,0.780029,-0.154541,0.638428
18:06:50,0.830322,-0.181396,0.709229
18:06:50,0.756104,-0.242432,0.763672
18:06:50,0.619385,-0.26123,0.890869
18:06:50,0.531006,-0.29541,0.99585
18:06:50,0.560303,-0.272949,1.248535
18:06:51,-0.059814,-0.242676,1.469238
18:06:51,-0.166504,-0.393066,1.600098
18:06:51,0.435547,-0.435547,2.334473
18:06:51,0.420654,-0.028809,1.353516
18:06:51,0.455078,0.323975,0.384033
18:06:51,0.788574,0.032715,0.453857
18:06:51,0.239502,-0.360352,0.442627
18:06:51,2.884277,0.038086,1.002441
18:06:51,7.240723,0.050537,0.351563
18:06:51,7.999756,0.761475,-1.636475
18:06:51,7.095459,2.667725,-1.625
18:06:51,4.061523,2.782227,0.479492
18:06:51,1.694336,1.10376,1.735107
18:06:51,0.3125,-0.066162,1.049316
18:06:51,-0.034668,0.183594,0.115967
18:06:51,-0.419922,0.513916,-0.869385
18:06:51,-1.022461,0.44165,-0.51416
18:06:51,-1.341553,0.231201,0.794189
18:06:51,-0.570801,0.404785,0.517334
18:06:51,0.267578,0.409424,0.443115
18:06:51,0.757813,0.5625,0.602539
18:06:51,0.853027,0.627441,0.666748
18:06:51,1.150879,0.865967,0.217285
18:06:51,1.233154,0.875977,0.018311
18:06:51,1.301758,0.733154,-0.168701
18:06:51,1.489014,0.540039,-0.081299
18:06:51,1.650146,0.194336,0.057861
18:06:51,2.014648,-0.247803,0.307373
18:06:51,2.440186,-1.307129,0.377197
18:06:51,2.562256,-1.283936,-0.540527
18:06:51,2.363525,-0.92041,-1.104736
18:06:51,1.890381,-0.993652,-0.609619
18:06:51,1.713623,-1.040039,-0.168701
18:06:51,2.276367,-1.073486,-0.200928
18:06:51,3.076904,-0.758789,-0.869385
18:06:51,3.163574,-0.043701,-2.285645
18:06:51,3.006104,0.94165,-3.609619
18:06:51,2.192627,1.807617,-4.488281
18:06:51,1.105957,1.796631,-4.230469
18:06:51,0.527344,1.005371,-3.261963
18:06:51,0.331543,0.679932,-3.133545
18:06:51,0.298096,0.830566,-3.396484
18:06:51,-0.450439,0.549316,-3.604248
18:06:51,-1.211426,0.394043,-3.283691
18:06:51,-0.712402,0.583496,-1.414063
18:06:51,1.601074,-0.158203,1.309814
18:06:51,3.872559,-2.106201,2.991455
18:06:51,1.000488,-2.46582,-0.582764
18:06:51,2.615723,-3.167236,-1.383545
18:06:51,7.808594,-6.751709,1.229248
18:06:51,1.099854,-1.622314,-3.864014
18:06:51,1.783691,-1.053467,-0.224365
18:06:51,2.107666,-0.632813,0.959229
18:06:51,1.019531,-0.085205,0.555176
18:06:51,0.272705,0.012207,0.155029
18:06:51,0.406494,0.318115,0.199951
18:06:51,0.865723,1.2229,0.153564
18:06:51,0.38501,1.284668,0.05127
18:06:51,0.282227,1.082275,0.308838
18:06:51,0.317383,0.851563,0.66626
18:06:51,0.174316,0.544189,0.731689
18:06:51,0.120361,0.300049,0.652588
18:06:51,0.289307,0.241455,0.584961
18:06:51,0.615479,0.312012,0.603027
18:06:51,0.822998,0.385986,0.540039
18:06:51,0.737061,0.329102,0.355225
18:06:51,0.656982,0.214111,0.304199
18:06:51,1.052246,0.071777,0.504639
18:06:51,1.092773,-0.056152,0.492676
18:06:51,0.677979,-0.097412,0.330078
18:06:51,0.770508,-0.07959,0.520508
18:06:51,1.193604,-0.10498,0.56543
18:06:51,1.165039,-0.207031,0.214355
18:06:51,0.836914,-0.289795,0.245361
18:06:51,0.920654,-0.328613,0.583252
18:06:51,0.814941,-0.263184,0.574707
18:06:51,0.92749,-0.226318,0.414307
18:06:51,0.933838,-0.210205,0.375244
18:06:51,0.879639,-0.155273,0.454346
18:06:51,0.827637,-0.080566,0.503662
18:06:51,0.772949,-0.042969,0.485352
18:06:51,0.934814,-0.049316,0.493408
18:06:51,1.016113,-0.094238,0.374268
18:06:51,0.953857,-0.077637,0.466309
18:06:51,0.941162,-0.123291,0.569336
18:06:51,0.868408,-0.109619,0.665039
18:06:51,0.81665,-0.123047,0.679688
18:06:51,0.813232,-0.118408,0.603271
18:06:51,0.816406,-0.191162,0.578125
18:06:51,0.726563,-0.084961,0.730713
18:06:51,0.437988,-0.122559,1.093506
18:06:51,0.211182,0.084229,1.441162
18:06:51,0.103516,0.033447,1.513428
18:06:51,0.08252,-0.599854,1.595215
18:06:51,0.56543,-0.849365,1.715088
18:06:51,0.801025,-0.419922,1.170166
18:06:51,0.752441,-0.030762,0.634521
18:06:51,0.710938,-0.035889,0.331299
18:06:51,-0.079346,-0.186523,0.403809
18:06:51,2.977783,-0.224609,1.435547
18:06:52,7.801025,-0.697754,0.61499
18:06:52,7.999756,-0.006348,-1.752197
18:06:52,7.275391,2.644287,-1.580078
18:06:52,4.676758,3.67749,0.227051
18:06:52,2.471191,2.359131,1.311768
18:06:52,0.237793,0.454102,0.273926
18:06:52,-0.250732,0.301025,-0.168213
18:06:52,-0.388672,0.592773,-0.362793
18:06:52,-0.876709,0.619873,0.162109
18:06:52,-0.702393,0.770264,0.392822
18:06:52,-0.10083,0.827881,0.306396
18:06:52,0.563721,0.971436,0.422607
18:06:52,0.748779,1.155029,-0.001465
18:06:52,0.483398,0.910645,-0.405273
18:06:52,0.807129,0.808594,-0.072754
18:06:52,0.926514,0.651611,0.138916
18:06:52,0.970459,0.452393,0.186035
18:06:52,1.192871,0.333008,0.332275
18:06:52,1.520996,0.254883,0.422607
18:06:52,1.736572,0.196777,0.30127
18:06:52,1.750977,0.030029,0.068115
18:06:52,1.991699,-0.195313,0.019287
18:06:52,2.401611,-0.4021,-0.231201
18:06:52,2.157959,-0.279297,-0.660889
18:06:52,2.25415,-0.375732,-0.269287
18:06:52,2.750977,-0.279541,-0.015625
18:06:52,2.96582,0.133789,-0.711426
18:06:52,2.984619,0.559082,-1.839111
18:06:52,2.816406,1.186768,-2.984131
18:06:52,2.244141,1.721436,-3.884766
18:06:52,1.410889,1.516357,-3.960205
18:06:52,0.75708,0.842041,-3.42749
18:06:52,0.629883,0.4021,-3.233643
18:06:52,0.602783,0.430664,-3.131348
18:06:52,-0.193359,0.526123,-3.10376
18:06:52,-1.330322,0.321289,-3.502441
18:06:52,-1.612549,0.679443,-2.725586
18:06:52,0.574951,0.037354,0.079102
18:06:52,4.07666,-2.033691,2.311035
18:06:52,3.007813,-3.957031,0.562988
18:06:52,4.643311,-3.625977,-2.201416
18:06:52,7.841309,-5.548584,-1.132813
18:06:52,1.759277,-1.805908,-3.11499
18:06:52,1.834961,-1.177002,0.116699
18:06:52,1.344238,-0.360596,0.797363
18:06:52,0.510498,-0.096191,1.009521
18:06:52,-0.106445,-0.053467,0.571045
18:06:52,-0.022705,0.219727,0.208496
18:06:52,0.398193,0.993652,0.159668
18:06:52,0.601807,1.379395,0.194336
18:06:52,0.628662,1.421387,0.178955
18:06:52,0.39209,0.955566,0.378662
18:06:52,0.248291,0.486084,0.65918
18:06:52,0.306885,0.281982,0.703613
18:06:52,0.405762,0.191162,0.60083
18:06:52,0.572021,0.154785,0.536621
18:06:52,0.688965,0.173584,0.454346
18:06:52,1.366211,0.109375,0.549561
18:06:52,1.566895,-0.106689,0.243408
18:06:52,0.740234,-0.195557,-0.068115
18:06:52,0.491943,-0.116211,0.421631
18:06:52,0.678467,-0.1604,0.895264
18:06:52,0.46875,-0.248047,0.828125
18:06:52,1.052979,-0.382324,0.614746
18:06:52,1.753418,-0.479492,0.424316
18:06:52,0.610596,-0.146729,-0.033936
18:06:52,0.906494,-0.059814,0.447998
18:06:52,0.750977,-0.169434,0.654785
18:06:52,0.894531,-0.145508,0.438232
18:06:52,0.901611,-0.094971,0.3125
18:06:52,0.838379,-0.161865,0.468506
18:06:52,0.849365,-0.172363,0.517578
18:06:52,0.954102,-0.172607,0.499023
18:06:52,0.906494,-0.218018,0.468506
18:06:52,0.936523,-0.220215,0.509033
18:06:52,0.929688,-0.192139,0.598633
18:06:52,0.838623,-0.160645,0.651855
18:06:52,0.82959,-0.137207,0.6604
18:06:52,0.810059,-0.174561,0.624756
18:06:52,0.763184,-0.213623,0.641846
18:06:52,0.644043,-0.200439,0.738037
18:06:52,0.623047,-0.333252,0.999512
18:06:52,0.286377,-0.288574,1.26001
18:06:52,0.221924,-0.326904,1.512939
18:06:52,0.342529,-0.371582,1.449219
18:06:52,0.278809,-0.547607,1.613281
18:06:52,0.431641,-0.344238,1.697754
18:06:52,0.740479,0.083984,0.566406
18:06:52,0.708252,0.158691,0.250488
18:06:52,0.516113,-0.150146,0.904785
18:06:52,-0.008789,-0.216553,1.075684
18:06:52,3.686768,-0.331543,1.145264
18:06:52,7.999756,-0.664551,-0.113037
18:06:52,7.875977,0.773682,-1.866943
18:06:52,6.137207,2.701904,-1.176025
18:06:52,3.144775,2.343506,1.119141
18:06:52,1.312012,0.710693,1.561035
18:06:52,0.220947,-0.072266,0.516846
18:06:52,-0.305908,0.40625,-0.461426
18:06:52,-1.42041,0.852539,-0.633545
18:06:53,-0.6604,0.908447,0.004395
18:06:53,0.799072,2.362305,1.214111
18:06:53,0.604492,1.87085,-0.44873
18:06:53,0.453857,1.14502,-0.43042
18:06:53,0.560059,0.692627,0.065674
18:06:53,0.478271,0.358887,0.131104
18:06:53,0.603271,0.232666,0.23999
18:06:53,1.061279,0.300293,0.387695
18:06:53,1.482666,0.431396,0.347412
18:06:53,1.515869,0.393066,-0.05835
18:06:53,1.36792,0.24707,-0.414307
18:06:53,2.405029,0.069824,-0.45752
18:06:53,2.237793,-1.052734,-0.261475
18:06:53,2.232178,-1.330322,-0.403564
18:06:53,2.057861,-0.7771,-0.547852
18:06:53,1.956055,-0.770508,0.032715
18:06:53,2.42041,-0.803955,0.462158
18:06:53,2.706543,-0.221924,-0.193115
18:06:53,2.904541,0.355957,-1.370361
18:06:53,3.268066,0.930908,-2.577393
18:06:53,2.844238,1.561279,-3.630127
18:06:53,1.671631,1.449219,-3.728027
18:06:53,0.983398,0.813477,-3.104248
18:06:53,0.702881,0.406006,-3.004395
18:06:53,0.715332,0.277588,-3.283691
18:06:53,0.743164,0.342285,-3.277832
18:06:53,0.301758,0.454834,-2.756348
18:06:53,-0.968994,0.311279,-2.405273
18:06:53,-1.187256,0.390625,-2.116211
18:06:53,-0.250244,0.19458,-0.659424
18:06:53,1.684326,-0.713867,1.05957
18:06:53,3.805908,-3.462646,2.072754
18:06:53,3.346191,-2.713135,-0.465332
18:06:53,7.999756,-6.07373,0.203369
18:06:53,2.378174,-2.139893,-4.006592
18:06:53,3.117432,-1.437988,-0.608154
18:06:53,1.76123,-0.629639,0.253418
18:06:53,0.724121,-0.178711,0.409424
18:06:53,0.111084,-0.039551,0.674805
18:06:53,0.036865,0.127441,0.656006
18:06:53,0.205811,0.431641,0.451172
18:06:53,0.484131,0.904297,0.221436
18:06:53,0.807617,1.263916,0.20166
18:06:53,0.787842,1.128418,0.228271
18:06:53,0.565186,0.671875,0.375
18:06:53,0.511475,0.354736,0.557617
18:06:53,0.513672,0.166748,0.635254
18:06:53,0.494141,0.024658,0.590576
18:06:53,0.515625,-0.015869,0.519775
18:06:53,0.754639,-0.024658,0.588135
18:06:53,0.983643,-0.075439,0.521973
18:06:53,0.762207,-0.122803,0.374268
18:06:53,0.635254,-0.133789,0.540527
18:06:53,0.8125,-0.137939,0.626709
18:06:53,0.766113,-0.122559,0.528564
18:06:53,0.812988,-0.124268,0.465576
18:06:53,0.883545,-0.127686,0.380615
18:06:53,0.94873,-0.144287,0.401611
18:06:53,0.959717,-0.161621,0.375488
18:06:53,0.984375,-0.195068,0.412842
18:06:53,0.94458,-0.23999,0.437012
18:06:53,0.871582,-0.266846,0.404785
18:06:53,0.874756,-0.265625,0.406006
18:06:53,0.859375,-0.281006,0.405762
18:06:53,0.876221,-0.266357,0.420166
18:06:53,0.833252,-0.268799,0.429443
18:06:53,0.828125,-0.228516,0.521484
18:06:53,0.672852,-0.179688,0.519775
18:06:53,0.692871,-0.161621,0.519043
18:06:53,0.587158,-0.145752,0.532959
18:06:53,2.090088,-0.008545,0.251709
18:06:53,1.265625,-0.151123,0.087402
18:06:53,0.873047,-0.385254,0.349609
18:06:53,0.990234,-0.427979,0.780029
18:06:53,0.86084,-0.363281,1.143066
18:06:53,0.584961,-0.484619,1.294678
18:06:53,0.233154,-0.742676,1.381592
18:06:53,-0.122803,-0.898682,1.724854
18:06:53,0.138916,-0.923828,2.020752
18:06:53,0.779297,-0.836914,1.246094
18:06:53,0.939209,-0.475586,0.40332
18:06:53,0.60376,-0.139893,0.422119
18:06:53,0.279297,-0.289307,0.781006
18:06:53,1.152832,-0.580078,1.796387
18:06:53,3.331299,-0.623779,0.807617
18:06:53,6.324951,-0.152588,-1.612305
18:06:53,7.999756,0.941406,-2.056152
18:06:53,7.397705,1.98877,-3.949707
18:06:53,3.455078,0.726563,-0.379883
18:06:53,1.012207,-0.019043,0.60791
18:06:53,0.717285,-0.25415,1.071533
18:06:53,0.378174,-0.172852,0.853271
18:06:53,0.081543,0.116943,-0.594971
18:06:53,-0.631836,0.491211,-1.936768
18:06:53,-1.054199,0.503418,-0.691162
18:06:53,-0.383545,0.596191,0.358154
18:06:53,1.278809,2.542236,0.436279
18:06:53,1.139648,2.76416,-1.302002
18:06:53,0.414551,1.785645,-1.437256
18:06:53,0.648438,1.173584,-0.172607
18:06:54,0.642822,0.640137,0.336182
18:06:54,0.496582,0.319336,0.344238
18:06:54,0.677734,0.312744,0.392578
18:06:54,0.898438,0.29248,0.321533
18:06:54,1.162842,0.245605,0.282715
18:06:54,1.601074,0.261963,0.324463
18:06:54,1.933594,0.305908,0.172852
18:06:54,2.244141,0.358154,-0.072998
18:06:54,3.144287,0.090576,-0.253418
18:06:54,3.552979,-0.322754,-0.887451
18:06:54,3.144775,-0.531494,-1.578613
18:06:54,2.873291,-0.738281,-1.600586
18:06:54,2.511475,-0.57251,-1.695557
18:06:54,2.30249,-0.004639,-2.17627
18:06:54,1.832275,0.323242,-2.800537
18:06:54,1.362305,0.70459,-3.396484
18:06:54,1.072998,0.960693,-3.650391
18:06:54,0.787842,0.83374,-3.410645
18:06:54,0.477051,0.670166,-2.949219
18:06:54,-0.178223,0.402344,-2.639893
18:06:54,-1.006592,0.219482,-3.421875
18:06:54,-1.178955,0.404541,-2.241699
18:06:54,-0.040527,0.030518,-0.333008
18:06:54,6.461914,-3.120117,4.09668
18:06:54,2.026611,-2.66748,0.26001
18:06:54,4.22583,-3.189209,-0.769775
18:06:54,5.684082,-3.328125,0.087158
18:06:54,1.203857,-1.160645,-2.244385
18:06:54,2.087646,-0.432617,-0.16333
18:06:54,2.878174,0.149414,0.678955
18:06:54,1.475586,0.392822,-0.04834
18:06:54,0.83252,0.66333,-0.36499
18:06:54,0.751465,0.700684,0.189209
18:06:54,0.582031,0.359863,0.713379
18:06:54,0.375244,0.362793,0.796143
18:06:54,0.25708,0.390869,0.656738
18:06:54,0.2771,0.323975,0.554443
18:06:54,0.383301,0.300293,0.529053
18:06:54,0.511963,0.248047,0.549316
18:06:54,0.646973,0.210938,0.551025
18:06:54,0.743164,0.185059,0.49585
18:06:54,0.973633,0.135498,0.452148
18:06:54,1.148193,0.024414,0.330566
18:06:54,0.848877,-0.043213,0.262207
18:06:54,0.681885,-0.099854,0.517334
18:06:54,0.616211,-0.134033,0.737061
18:06:54,0.581787,-0.115723,0.698486
18:06:54,0.615234,-0.036133,0.573486
18:06:54,0.825928,0.061035,0.531006
18:06:54,1.14502,0.02832,0.398682
18:06:54,1.265625,-0.132813,0.162842
18:06:54,0.892578,-0.096191,0.311768
18:06:54,0.905762,-0.188232,0.563721
18:06:54,0.859375,-0.247314,0.551025
18:06:54,0.904053,-0.279541,0.412109
18:06:54,0.898438,-0.282471,0.442627
18:06:54,0.82373,-0.270508,0.508057
18:06:54,0.799316,-0.249512,0.518555
18:06:54,0.76001,-0.169678,0.506836
18:06:54,0.916748,-0.060059,0.46875
18:06:54,1.039795,-0.062744,0.501709
18:06:54,0.957764,-0.09082,0.502441
18:06:54,0.929932,-0.092529,0.57959
18:06:54,0.858887,-0.082764,0.662354
18:06:54,0.784912,-0.186768,0.742676
18:06:54,0.698486,-0.322266,0.77124
18:06:54,0.789551,-0.250244,0.678955
18:06:54,0.713623,-0.085449,0.841064
18:06:54,0.242432,-0.050537,1.140625
18:06:54,0.060791,0.17041,1.19751
18:06:54,0.056641,0.157959,1.691895
18:06:54,0.198975,-0.710693,2.186523
18:06:54,0.617432,-0.886719,1.466309
18:06:54,0.498535,0.020508,0.684814
18:06:54,0.548096,0.134766,0.506348
18:06:54,0.658447,-0.089355,0.360596
18:06:54,0.853516,-0.043945,0.89209
18:06:54,4.331055,0.426025,1.45752
18:06:54,7.999756,-0.07959,-1.310547
18:06:54,7.812256,1.930664,-2.036621
18:06:54,5.739746,3.071289,-0.882324
18:06:54,3.001709,2.194092,1.26123
18:06:54,1.085938,0.541016,1.530762
18:06:54,0.268799,0.06543,1.084961
18:06:54,-0.04126,0.390625,-0.166992
18:06:54,-0.863281,0.514893,-0.883301
18:06:54,-1.509521,0.604492,0.01709
18:06:54,-0.883545,0.745361,0.553467
18:06:54,0.713379,1.553711,0.841064
18:06:54,0.971191,1.671143,-0.050049
18:06:54,0.61499,1.190918,-0.547119
18:06:54,0.679199,0.789795,-0.117188
18:06:54,0.816406,0.514648,0.292725
18:06:54,0.934814,0.339111,0.470215
18:06:54,1.171631,0.293213,0.481201
18:06:54,1.497803,0.286133,0.376465
18:06:54,1.715576,0.366699,0.05542
18:06:54,1.80249,0.087402,-0.101318
18:06:54,2.485352,-1.018799,-0.114258
18:06:54,2.820313,-1.419434,-0.906006
18:06:55,2.168945,-0.866455,-1.496338
18:06:55,1.831787,-0.93335,-0.786377
18:06:55,1.816406,-1.082031,-0.213867
18:06:55,2.192871,-0.908203,-0.443359
18:06:55,2.708496,-0.445313,-1.285645
18:06:55,2.907227,0.317139,-2.46582
18:06:55,2.795166,0.987305,-3.312012
18:06:55,1.990234,1.655273,-3.796387
18:06:55,1.097168,1.533203,-3.623535
18:06:55,0.709961,0.763428,-2.947266
18:06:55,0.244385,0.604248,-3.062988
18:06:55,-0.893311,0.276123,-3.235352
18:06:55,-1.718018,0.468506,-5.421387
18:06:55,-1.790771,0.68042,-3.757568
18:06:55,-0.51001,0.34375,-1.419434
18:06:55,6.793945,-1.556641,3.84082
18:06:55,4.164551,-3.406738,1.898193
18:06:55,6.806396,-4.354004,-1.694092
18:06:55,4.806396,-2.375488,-4.640381
18:06:55,3.101074,-1.445801,-1.418701
18:06:55,2.189697,-0.579102,0.459717
18:06:55,0.875488,-0.080811,0.742188
18:06:55,0.079102,-0.039063,0.705566
18:06:55,0.003418,0.003662,0.783936
18:06:55,0.143799,0.204346,0.669678
18:06:55,0.249756,0.474121,0.353271
18:06:55,0.36377,0.62915,0.35498
18:06:55,0.5271,0.732178,0.453125
18:06:55,0.578613,0.670166,0.433838
18:06:55,0.58252,0.440186,0.449219
18:06:55,0.730469,0.299805,0.488281
18:06:55,0.800049,0.218018,0.448486
18:06:55,1.319336,0.077881,0.430908
18:06:55,1.686279,-0.12207,0.254395
18:06:55,0.611084,-0.196045,-0.052002
18:06:55,0.792725,-0.318359,0.577393
18:06:55,0.725586,-0.492676,0.818359
18:06:55,0.56543,-0.39624,0.697021
18:06:55,0.894531,-0.48999,0.546387
18:06:55,0.97168,-0.416992,0.308105
18:06:55,0.745117,-0.25708,0.375244
18:06:55,0.876465,-0.280273,0.581055
18:06:55,0.812256,-0.234619,0.469238
18:06:55,0.903076,-0.146484,0.393311
18:06:55,0.890137,-0.070313,0.394043
18:06:55,0.920898,-0.020996,0.333252
18:06:55,0.890625,0.003174,0.335693
18:06:55,0.939697,-0.034668,0.37915
18:06:55,0.864258,-0.069092,0.404785
18:06:55,0.835205,-0.094482,0.492432
18:06:55,0.864258,-0.154297,0.531982
18:06:55,0.890137,-0.186768,0.527588
18:06:55,0.878906,-0.190918,0.554199
18:06:55,0.885742,-0.175293,0.552979
18:06:55,0.887207,-0.179443,0.545654
18:06:55,0.862061,-0.182617,0.596924
18:06:55,0.827637,-0.206055,0.624023
18:06:55,0.750244,-0.253662,0.690918
18:06:55,0.69751,-0.319824,0.811279
18:06:55,0.555664,-0.378662,0.921387
18:06:55,0.304443,-0.391357,1.29541
18:06:55,0.35083,-0.565674,1.556396
18:06:55,0.39624,-0.55835,1.051025
18:06:55,-0.025391,-0.216309,1.245117
18:06:55,-0.025391,-0.19751,2.158691
18:06:55,0.564941,0.281006,1.046631
18:06:55,0.579346,0.303711,0.422607
18:06:55,0.662354,-0.115479,0.586182
18:06:55,0.567627,-0.107666,0.162842
18:06:55,0.692383,-0.003662,0.578125
18:06:55,3.024658,0.973877,0.270996
18:06:55,7.999756,2.368652,-0.543701
18:06:55,7.985107,1.257813,-1.904297
18:06:55,7.94165,1.054199,-3.481445
18:06:55,3.622559,0.223389,-0.929688
18:06:55,1.26001,0.090088,0.455566
18:06:55,0.704834,-0.210938,1.174561
18:06:55,0.22876,-0.252197,0.987793
18:06:55,-0.252441,-0.135986,-0.321045
18:06:55,-1.390137,0.304932,-1.033447
18:06:55,-1.193604,0.286377,-0.378662
18:06:55,-0.18042,0.12915,0.403076
18:06:55,0.384277,0.075684,0.821533
18:06:55,0.559082,0.09668,1.057861
18:06:55,0.876221,0.370361,0.533447
18:06:55,1.965576,1.165771,0.400879
18:06:55,1.915527,1.152344,-0.108398
18:06:55,1.419189,0.818115,-0.871094
18:06:55,1.778809,0.718018,-0.697754
18:06:55,1.810791,0.054199,-0.237061
18:06:55,1.913818,-1.016846,0.071045
18:06:55,2.084961,-1.549316,-0.200928
18:06:55,1.773438,-0.948975,-0.586914
18:06:55,1.685791,-0.726563,-0.210205
18:06:55,1.956543,-0.858643,0.222656
18:06:55,2.418945,-0.657227,-0.085938
18:06:55,3.129639,0.179932,-0.999023
18:06:55,3.023682,0.802979,-2.422852
18:06:55,2.945557,1.541016,-3.421387
18:06:55,1.963379,1.62793,-3.763428
18:06:56,1.174072,0.863525,-3.054688
18:06:56,0.708496,0.29248,-2.778076
18:06:56,0.812012,0.110596,-2.979004
18:06:56,0.80542,0.141357,-3.4104
18:06:56,-0.491699,0.074707,-2.826904
18:06:56,-1.047607,0.161865,-3.79248
18:06:56,-1.373779,0.474854,-2.994873
18:06:56,-0.327148,0.704346,-1.20752
18:06:56,4.256836,-0.498047,2.99292
18:06:56,4.197021,-3.005615,2.12207
18:06:56,0.474854,-2.322754,-2.495605
18:06:56,6.467041,-4.716064,-0.165283
18:06:56,5.178223,-3.112793,-0.442627
18:06:56,0.451904,-0.594971,-1.734619
18:06:56,1.714111,0.076172,0.400879
18:06:56,2.316162,0.335205,1.082031
18:06:56,0.808105,0.455078,-0.074219
18:06:56,0.436035,0.85791,-0.217041
18:06:56,0.53125,0.973633,0.311768
18:06:56,0.35498,0.723389,0.663818
18:06:56,0.249512,0.59375,0.737549
18:06:56,0.191406,0.523682,0.604248
18:06:56,0.227783,0.430664,0.568848
18:06:56,0.389404,0.375488,0.579834
18:06:56,0.587158,0.370117,0.577637
18:06:56,0.715576,0.358643,0.50708
18:06:56,0.930176,0.282227,0.376221
18:06:56,1.383789,0.087891,0.390625
18:06:56,0.485352,0.124268,0.350342
18:06:56,0.769531,0.079346,0.60376
18:06:56,0.795654,-0.058105,0.657715
18:06:56,0.755371,-0.127686,0.606689
18:06:56,1.029053,-0.171143,0.5354
18:06:56,0.942627,-0.170654,0.2229
18:06:56,0.929688,-0.19751,0.425781
18:06:56,0.822998,-0.243652,0.55542
18:06:56,0.81543,-0.267334,0.549072
18:06:56,0.894531,-0.243896,0.44043
18:06:56,0.898682,-0.216797,0.411621
18:06:56,0.87793,-0.160889,0.457275
18:06:56,0.876221,-0.105469,0.47583
18:06:56,0.857178,-0.079834,0.444824
18:06:56,0.905029,-0.08374,0.438232
18:06:56,0.830811,-0.053467,0.483643
18:06:56,0.82959,-0.008057,0.506836
18:06:56,0.896484,0.013916,0.480469
18:06:56,0.87207,-0.032471,0.512939
18:06:56,0.870605,-0.131836,0.614258
18:06:56,0.898193,-0.090332,0.626221
18:06:56,0.890137,-0.037354,0.637939
18:06:56,0.806152,-0.163086,0.743652
18:06:56,0.724609,-0.238525,0.764893
18:06:56,0.697021,-0.206787,0.720215
18:06:56,0.626221,-0.170654,0.723389
18:06:56,0.64502,-0.026611,0.802979
18:06:56,0.416016,0.213135,1.148682
18:06:56,-0.023193,0,1.801758
18:06:56,-0.264404,-0.157715,1.749756
18:06:56,-0.020508,-0.427979,1.474609
18:06:56,0.606445,0.08374,1.344482
18:06:56,0.695801,0.068359,0.578125
18:06:56,0.697266,0.156006,0.772217
18:06:56,0.40918,0.064941,0.939209
18:06:56,0.236328,-0.031006,0.633789
18:06:56,5.639893,0.033203,0.860352
18:06:56,7.849365,0.143799,-0.486572
18:06:56,7.999756,2.196533,-2.580566
18:06:56,5.495361,3.31665,-1.331055
18:06:56,2.688477,2.144531,0.863525
18:06:56,0.897217,0.327148,1.621582
18:06:56,0.239746,-0.031982,1.371094
18:06:56,-0.089111,0.337158,0.154541
18:06:56,-1.113037,0.416504,-0.584717
18:06:56,-1.760742,0.441162,0.124268
18:06:56,-0.894043,0.599609,0.736084
18:06:56,0.663574,1.268555,1.046387
18:06:56,1.226807,1.724609,0.446533
18:06:56,0.77002,1.359375,-0.54126
18:06:56,0.708252,0.920166,-0.343262
18:06:56,1.032715,0.64209,0.242676
18:06:56,1.132813,0.377197,0.416992
18:06:56,1.396729,0.309082,0.45459
18:06:56,1.845947,0.373535,0.358887
18:06:56,2.117432,0.301514,0.036621
18:06:56,2.259033,-0.141846,-0.200684
18:06:56,2.667969,-0.71875,-0.478027
18:06:56,2.319336,-0.939209,-1.125732
18:06:56,1.983154,-0.627686,-0.884766
18:06:56,1.520264,-0.550781,-0.276611
18:06:56,1.67749,-0.428955,0.19458
18:06:56,2.678223,0.19043,0.227783
18:06:56,3.075195,0.591797,-0.695313
18:06:56,3.347168,0.939209,-1.987549
18:06:56,2.88623,1.450439,-3.365723
18:06:56,2.228516,1.400635,-3.92749
18:06:56,1.34082,0.614258,-3.289063
18:06:56,0.800537,0.311523,-3.013428
18:06:56,0.745117,0.175049,-3.311035
18:06:56,0.723633,0.128906,-3.794678
18:06:56,0.711426,0.1875,-3.194336
18:06:57,-0.232422,0.274658,-2.425537
18:06:57,-1.054443,0.330322,-2.120605
18:06:57,-0.816406,0.450195,-1.230713
18:06:57,0.899658,0.044678,1.150879
18:06:57,3.787598,-2.58374,2.547363
18:06:57,2.179688,-2.709717,0.580566
18:06:57,5.377686,-3.921143,0.280518
18:06:57,6.080078,-3.73999,-1.15332
18:06:57,1.561523,-0.820801,-2.437256
18:06:57,2.629395,-0.445801,0.156738
18:06:57,2.165283,0.061035,0.597168
18:06:57,0.646484,0.173828,0.045654
18:06:57,0.351318,0.192383,0.171143
18:06:57,0.562256,0.426025,0.637939
18:06:57,0.505127,0.712402,0.805664
18:06:57,0.314209,0.843506,0.373047
18:06:57,0.324463,0.822998,0.385986
18:06:57,0.497803,0.706055,0.611084
18:06:57,0.431152,0.436523,0.644775
18:06:57,0.421875,0.241699,0.620361
18:06:57,0.439209,0.150635,0.57373
18:06:57,0.470703,0.140625,0.530029
18:06:57,0.573486,0.17041,0.5
18:06:57,0.717529,0.220703,0.530273
18:06:57,0.611816,0.137695,0.51709
18:06:57,0.493652,0.062988,0.503662
18:06:57,0.616455,0.107178,0.613037
18:06:57,0.874512,0.196777,0.730713
18:06:57,0.961426,0.080322,0.606445
18:06:57,1.016846,-0.052734,0.33374
18:06:57,0.97168,-0.029785,0.320313
18:06:57,0.905518,-0.02417,0.539795
18:06:57,0.775879,-0.082764,0.59668
18:06:57,0.810547,-0.143799,0.55127
18:06:57,1.12085,-0.156494,0.442383
18:06:57,1.183105,-0.175293,0.280273
18:06:57,0.970947,-0.189209,0.352051
18:06:57,0.784912,-0.14917,0.587402
18:06:57,0.602783,-0.109863,0.69873
18:06:57,0.551758,-0.110352,0.727051
18:06:57,0.885498,-0.138916,0.696045
18:06:57,1.099609,-0.166992,0.515869
18:06:57,0.849854,-0.133789,0.43457
18:06:57,0.806152,-0.05957,0.63208
18:06:57,0.760254,-0.04541,0.74292
18:06:57,0.817871,0.02832,0.745605
18:06:57,0.731934,0.299561,0.556885
18:06:57,0.718506,0.522461,0.487305
18:06:57,0.492676,0.397705,0.878906
18:06:57,0.412842,0.138428,1.512451
18:06:57,-0.020996,-0.495117,1.738525
18:06:57,0.033936,-0.7854,0.884521
18:06:57,1.477051,-0.822998,1.240723
18:06:57,0.357666,-0.306885,1.343506
18:06:57,0.735107,-0.050293,0.688232
18:06:57,0.719727,0.03418,0.565186
18:06:57,0.991699,-0.338623,0.876953
18:06:57,-0.016113,-0.189697,0.285156
18:06:57,6.390381,-0.3125,0.57666
18:06:57,7.999756,-1.050537,-0.66626
18:06:57,7.999756,0.804443,-1.467773
18:06:57,6.06665,3.193604,-0.586182
18:06:57,3.248535,2.763672,0.993896
18:06:57,1.098145,0.795898,1.275391
18:06:57,0.113281,0.024658,0.754395
18:06:57,-0.077393,0.345215,-0.030273
18:06:57,-0.336182,0.597656,-0.604004
18:06:57,-0.763428,0.598389,0.022217
18:06:57,-0.14917,1.600342,0.854004
18:06:57,0.788086,2.599365,0.090332
18:06:57,0.613525,1.919922,-0.864502
18:06:57,0.62207,1.139893,-0.233887
18:06:57,0.695068,0.634766,0.318848
18:06:57,0.724121,0.394775,0.396973
18:06:57,1.19873,0.536377,0.536133
18:06:57,1.588867,0.690918,0.422852
18:06:57,1.59082,0.599121,0.001953
18:06:57,1.740479,0.486816,-0.4021
18:06:57,2.177246,0.355957,-0.541992
18:06:57,2.329102,-0.346436,-0.950684
18:06:57,1.988281,-1.320557,-0.286865
18:06:57,2.390625,-0.817139,-0.328613
18:06:57,2.011719,-0.25293,-0.363281
18:06:57,2.560791,-0.023926,-0.11377
18:06:57,2.563965,0.198975,-0.78833
18:06:57,2.818115,0.56665,-1.590332
18:06:57,2.871826,1.041504,-2.329834
18:06:57,2.174072,1.244141,-2.860596
18:06:57,1.619385,0.688721,-2.534424
18:06:57,1.314209,0.1875,-2.355957
18:06:57,1.244629,-0.05127,-2.5979
18:06:57,1.123047,-0.180664,-3.011719
18:06:57,0.890381,-0.108398,-2.959717
18:06:57,0.63623,0.044678,-2.448242
18:06:57,0.850098,0.202881,-1.980957
18:06:57,0.539551,0.34668,-1.883789
18:06:57,-0.298584,0.271484,-1.42749
18:06:57,-0.518555,0.213379,-0.795166
18:06:57,0.327881,0.179443,0.540039
18:06:57,2.325684,-0.677246,2.562988
18:06:58,2.036377,-1.017578,1.770996
18:06:58,0.882813,-1.008301,-0.571289
18:06:58,5.263428,-3.101318,0.141846
18:06:58,6.092773,-3.086426,-0.561768
18:06:58,1.160645,-0.373779,-3.226318
18:06:58,3.511963,-0.157715,0.428955
18:06:58,1.543457,-0.026367,0.239746
18:06:58,0.455811,0.010986,0.224609
18:06:58,0.286865,0.062012,0.614258
18:06:58,0.320801,0.197021,1.047852
18:06:58,0.214111,0.420898,0.957031
18:06:58,0.219727,0.549805,0.369141
18:06:58,0.337402,0.746094,0.355713
18:06:58,0.47583,0.716797,0.50415
18:06:58,0.493652,0.530762,0.558105
18:06:58,0.558105,0.352539,0.581055
18:06:58,0.659668,0.278809,0.542236
18:06:58,0.779053,0.2229,0.512207
18:06:58,0.773682,0.152588,0.447998
18:06:58,0.94751,0.066895,0.450439
18:06:58,1.053223,-0.035889,0.427246
18:06:58,0.800537,-0.150391,0.412842
18:06:58,0.740234,-0.231934,0.583008
18:06:58,0.765625,-0.2771,0.638428
18:06:58,0.694092,-0.270996,0.563721
18:06:58,1.052734,-0.282715,0.509033
18:06:58,1.075928,-0.290771,0.304199
18:06:58,0.791016,-0.28833,0.351318
18:06:58,0.817139,-0.29541,0.604248
18:06:58,0.807373,-0.266113,0.539795
18:06:58,0.869629,-0.246582,0.404297
18:06:58,0.924316,-0.24585,0.403076
18:06:58,0.849609,-0.231201,0.499512
18:06:58,0.79126,-0.199951,0.539307
18:06:58,0.831299,-0.145752,0.539795
18:06:58,0.94165,-0.130859,0.523193
18:06:58,0.874512,-0.07666,0.436035
18:06:58,0.89917,-0.025391,0.533691
18:06:58,0.847656,-0.056152,0.606201
18:06:58,0.920166,-0.132324,0.665771
18:06:58,0.821289,-0.156494,0.739258
18:06:58,0.748779,-0.140869,0.781006
18:06:58,0.689209,-0.185059,0.720947
18:06:58,0.676514,-0.244629,0.678467
18:06:58,0.610107,-0.025391,0.864502
18:06:58,0.502686,0.23291,0.957275
18:06:58,0.330078,0.211182,1.058105
18:06:58,-0.006592,-0.036133,1.854736
18:06:58,-0.05249,-0.634033,1.591797
18:06:58,0.520752,-0.323486,1.681396
18:06:58,0.341064,0.385986,0.658447
18:06:58,1.635498,0.102783,0.79126
18:06:58,1.182617,-0.087646,0.417236
18:06:58,0.049072,-0.138672,0.170166
18:06:58,1.461914,0.0625,1.650879
18:06:58,6.135498,-0.796143,0.932373
18:06:58,7.999756,-1.017822,-1.152588
18:06:58,6.877441,0.61084,-1.450684
18:06:58,3.843018,1.503174,0.322266
18:06:58,1.879395,0.716553,2.120361
18:06:58,0.55127,-0.167725,1.616699
18:06:58,0.022949,0.009521,0.364502
18:06:58,-0.226074,0.32666,-0.883057
18:06:58,-0.662354,0.600342,-1.119873
18:06:58,0.241455,1.438965,-0.016602
18:06:58,1.038574,2.859131,0.099365
18:06:58,-0.375732,1.580566,-0.9375
18:06:58,0.022461,1.047363,0.081787
18:06:58,0.34375,0.653564,0.541504
18:06:58,0.363525,0.448975,0.272949
18:06:58,0.633545,0.42334,0.380371
18:06:58,0.972412,0.499756,0.421875
18:06:58,1.133789,0.414551,0.380127
18:06:58,1.220215,0.193604,0.233643
18:06:58,1.371826,0.052002,0.130127
18:06:58,1.54248,-0.152344,-0.067627
18:06:58,2.375488,-1.17041,0.451416
18:06:58,2.761719,-1.976807,-0.712646
18:06:58,2.365967,-1.53833,-1.668701
18:06:58,2.494141,-1.594238,-0.763672
18:06:58,2.446533,-1.694336,0.134277
18:06:58,2.031738,-1.19751,-0.188477
18:06:58,1.958008,-0.9646,-0.766113
18:06:58,2.72168,-0.222656,-1.371094
18:06:58,3.243408,1.0979,-2.680908
18:06:58,2.291016,2.011475,-4.324707
18:06:58,1.231689,1.936523,-4.321289
18:06:58,0.656494,1.094727,-3.074707
18:06:58,0.041016,0.4021,-2.37793
18:06:58,0.054443,0.156982,-2.323242
18:06:58,0.098389,0.07959,-2.21582
18:06:58,-0.712891,0.077637,-2.408447
18:06:58,-1.169189,0.1875,-2.802246
18:06:58,0.290283,-0.008301,-0.260254
18:06:58,3.014648,-1.737793,2.660156
18:06:58,2.532959,-3.20752,0.518066
18:06:58,0.616455,-2.508789,-2.120361
18:06:58,6.192871,-4.177246,1.904053
18:06:58,3.93335,-2.845947,1.184326
18:06:58,-1.185059,-0.602539,-2.033447
