Time,Accel-X (g), Accel-Y (g), Accel-Z (g)
18:04:23,4.020996,-1.86377,-1.549561
18:04:23,3.915039,-1.152832,-3.95166
18:04:23,4.678223,3.355225,-1.258545
18:04:23,3.296387,6.233643,-0.88623
18:04:23,3.655029,6.738281,-0.660645
18:04:23,3.10498,4.295166,0.229492
18:04:23,1.494141,1.153076,0.643799
18:04:23,1.314697,0.192871,1.033203
18:04:23,1.108887,-0.213379,0.598145
18:04:23,1.070801,-0.455566,0.292236
18:04:23,1.158203,-0.690186,0.328125
18:04:23,1.02124,-0.822021,0.268555
18:04:23,0.841553,-0.717773,0.27002
18:04:23,0.703857,-0.452881,0.335449
18:04:23,0.608887,-0.107422,0.20166
18:04:23,0.514404,0.193848,-0.024414
18:04:23,0.419678,0.144531,-0.006836
18:04:23,0.434814,0.016357,0.100342
18:04:23,0.591553,-0.174316,0.225098
18:04:23,0.797607,-0.39209,0.348877
18:04:23,0.893555,-0.487305,0.311523
18:04:23,0.937256,-0.531006,0.294922
18:04:23,0.909912,-0.505615,0.425049
18:04:23,0.869385,-0.419189,0.548584
18:04:23,0.773193,-0.343262,0.597656
18:04:23,0.727051,-0.279053,0.775391
18:04:23,1.227539,-0.169434,1.305908
18:04:23,1.621094,0.26123,0.925293
18:04:23,1.785156,0.654053,0.465576
18:04:23,2.422119,1.266846,0.449951
18:04:23,3.074463,2.297852,-0.325684
18:04:23,3.355225,2.669434,-1.453857
18:04:23,3.244385,1.736816,-1.666504
18:04:23,3.378906,-0.056641,-1.692871
18:04:23,3.201172,-1.127197,-2.777344
18:04:23,2.437744,-1.09668,-3.065186
18:04:23,1.451416,-0.677002,-2.153076
18:04:23,0.718994,-0.094238,-1.87915
18:04:23,0.634521,0.388916,-2.175049
18:04:23,0.884521,0.606934,-2.464355
18:04:23,1.39502,0.404541,-2.534668
18:04:23,1.735352,-0.134521,-2.358887
18:04:23,1.555176,-0.310059,-1.989502
18:04:23,1.257813,-0.181641,-1.37085
18:04:23,1.205566,-0.013672,-0.808594
18:04:23,1.321045,-0.086914,0.759766
18:04:23,0.744385,-0.12793,2.658203
18:04:23,0.459473,-0.124756,1.926514
18:04:23,0.479736,0.441162,2.490723
18:04:23,-0.814453,0.52002,-1.156006
18:04:23,1.794434,0.611816,1.061035
18:04:23,1.783936,0.330078,0.228027
18:04:23,3.201904,-0.084473,0.07251
18:04:23,3.826416,-0.602539,-1.390137
18:04:23,4.002197,1.149414,-2.164795
18:04:23,2.403809,1.046387,-1.163086
18:04:23,1.109131,0.496582,0.172852
18:04:23,0.573242,0.323242,0.693115
18:04:23,0.128906,0.197021,0.669922
18:04:23,-0.027344,0.112061,0.77124
18:04:23,0.106201,0.124756,1.003662
18:04:23,0.066162,0.099609,0.966553
18:04:23,0.17627,0.013184,0.935303
18:04:23,0.447266,-0.037109,0.869141
18:04:23,0.664551,-0.023193,0.687012
18:04:23,0.853271,0.018799,0.513184
18:04:23,0.991211,0.072266,0.394775
18:04:23,1.098877,0.140625,0.377441
18:04:23,1.098633,0.228027,0.368652
18:04:23,0.953613,0.3125,0.383545
18:04:23,0.784912,0.36499,0.452881
18:04:23,0.686523,0.402344,0.547119
18:04:23,0.634277,0.44043,0.580078
18:04:23,0.612549,0.494141,0.540771
18:04:23,0.692627,0.475098,0.526123
18:04:23,0.782227,0.411621,0.486084
18:04:23,0.834473,0.359131,0.421143
18:04:23,0.842773,0.220703,0.491211
18:04:23,0.811279,0.122314,0.548096
18:04:23,0.797119,0.124268,0.546387
18:04:23,0.782959,0.182129,0.577881
18:04:23,0.749023,0.244141,0.545166
18:04:23,0.793945,0.262939,0.603271
18:04:23,0.774414,0.280762,0.600586
18:04:23,0.737305,0.272705,0.550537
18:04:23,0.749512,0.238281,0.683838
18:04:23,0.729492,0.244385,0.626221
18:04:23,0.708008,0.248535,0.670654
18:04:23,0.693604,0.260498,0.711914
18:04:23,0.678223,0.276123,0.688232
18:04:23,0.665283,0.245361,0.698242
18:04:23,0.636475,0.139893,0.737793
18:04:23,0.635986,0.015137,0.815186
18:04:23,0.581299,-0.080322,0.845215
18:04:23,0.466064,-0.132568,0.831543
18:04:23,0.383057,-0.15332,0.809082
18:04:23,0.314453,-0.153564,0.780273
18:04:23,0.219482,-0.13916,0.715576
18:04:23,0.072021,-0.133789,0.640137
18:04:24,-0.212158,0.089355,0.59082
18:04:24,-0.930908,0.687012,0.494385
18:04:24,-0.739014,0.677002,1.058594
18:04:24,1.295898,-0.344238,0.76709
18:04:24,1.095215,-0.052979,-2.975098
18:04:24,3.508545,0.888672,-3.880371
18:04:24,3.36792,0.413574,-1.599121
18:04:24,3.60376,-0.837402,-0.809814
18:04:24,5.156738,0.803467,-1.061768
18:04:24,5.38208,3.672607,-2.616455
18:04:24,4.270508,4.356445,-2.154297
18:04:24,4.648926,4.37207,0.623291
18:04:24,3.028564,2.888184,0.261719
18:04:24,2.198975,1.555664,0.421387
18:04:24,1.825195,0.781738,0.481201
18:04:24,1.36377,0.317383,0.141846
18:04:24,1.095215,0.026611,0.026611
18:04:24,0.945557,-0.135254,0.006836
18:04:24,0.836182,-0.138672,0.00708
18:04:24,0.840576,0.06665,-0.010254
18:04:24,0.949707,0.505859,-0.14502
18:04:24,0.916748,0.95166,-0.469727
18:04:24,0.623535,0.983887,-0.679443
18:04:24,0.35083,0.588623,-0.57251
18:04:24,0.235352,0.130127,-0.408936
18:04:24,0.209717,-0.163818,-0.324707
18:04:24,0.232666,-0.291992,-0.138184
18:04:24,0.360352,-0.338135,0.315918
18:04:24,0.613037,-0.347168,0.88623
18:04:24,0.680664,-0.276855,1.076172
18:04:24,0.637451,-0.149902,0.936523
18:04:24,0.981689,-0.036133,1.16626
18:04:24,1.629883,0.196777,1.378906
18:04:24,2.018799,0.638672,0.901123
18:04:24,2.121582,1.224854,0.084717
18:04:24,2.593994,1.939941,-0.381836
18:04:24,3.170898,2.387451,-0.700928
18:04:24,3.297119,2.252441,-1.354248
18:04:24,3.155762,1.32666,-1.592773
18:04:24,3.350342,-0.128662,-1.460205
18:04:24,3.031006,-0.970459,-2.2146
18:04:24,2.35498,-1.19165,-2.196045
18:04:24,1.51123,-0.819092,-1.788818
18:04:24,0.873535,-0.237549,-1.81958
18:04:24,0.699219,0.224609,-2.075928
18:04:24,1.078369,0.61084,-2.47876
18:04:24,1.697998,0.362305,-2.783203
18:04:24,2.014648,-0.25293,-2.813721
18:04:24,1.753906,-0.528076,-2.29126
18:04:24,1.345703,-0.387207,-1.633789
18:04:24,1.104004,-0.280762,-1.327393
18:04:24,1.360107,-0.047119,-0.588867
18:04:24,2.261719,0.294922,1.981934
18:04:24,1.083496,0.215332,2.161865
18:04:24,-0.246582,0.034912,1.008545
18:04:24,0.5354,0.080322,2.299072
18:04:24,0.454102,0.075195,1.708252
18:04:24,0.649902,0.081543,0.325439
18:04:24,1.221924,0.148682,0.241943
18:04:24,1.270264,0.158203,-0.564941
18:04:24,3.147217,0.183838,0.335449
18:04:24,3.915527,1.083984,-0.735596
18:04:24,2.560303,2.148193,-2.651367
18:04:24,2.418945,1.291504,-0.889404
18:04:24,1.243652,-0.028564,0.421143
18:04:24,0.642822,-0.114746,0.648193
18:04:24,0.375977,0.005127,0.675049
18:04:24,0.219482,0.062012,0.733643
18:04:24,0.159912,0.074707,0.883057
18:04:24,0.114258,0.141846,0.930908
18:04:24,0.064941,0.274658,1.013672
18:04:24,0.210938,0.376465,0.815918
18:04:24,0.459473,0.426025,0.645508
18:04:24,0.711426,0.391846,0.51123
18:04:24,0.932861,0.269775,0.443115
18:04:24,1.058838,0.122803,0.439209
18:04:24,1.117432,0.008789,0.411377
18:04:24,1.086182,-0.057129,0.410156
18:04:24,0.940674,-0.016602,0.491211
18:04:24,0.766113,0.125488,0.57251
18:04:24,0.627686,0.343262,0.570313
18:04:24,0.568359,0.512207,0.524902
18:04:24,0.581543,0.591064,0.526367
18:04:24,0.63623,0.631592,0.503662
18:04:24,0.737305,0.574951,0.467773
18:04:24,0.833496,0.407959,0.476563
18:04:24,0.882813,0.270996,0.476318
18:04:24,0.885742,0.184326,0.540283
18:04:24,0.816162,0.04834,0.632324
18:04:24,0.753662,0.018311,0.690918
18:04:24,0.734375,0.088379,0.660156
18:04:24,0.682373,0.130127,0.71582
18:04:24,0.706787,0.268799,0.761719
18:04:24,0.719971,0.431885,0.764648
18:04:24,0.718018,0.52002,0.608643
18:04:24,0.699951,0.482422,0.753662
18:04:24,0.625,0.453125,0.734131
18:04:24,0.640381,0.280273,0.791992
18:04:24,0.625977,0.041504,0.866943
18:04:24,0.629883,-0.117676,0.917725
18:04:24,0.580566,-0.229248,0.917725
18:04:25,0.507324,-0.31543,0.977051
18:04:25,0.306396,-0.341064,0.844482
18:04:25,0.266357,-0.369141,0.928711
18:04:25,0.172119,-0.299072,0.800781
18:04:25,-0.029053,-0.233887,0.877197
18:04:25,-0.518066,-0.191162,0.664795
18:04:25,-0.273926,-0.154541,1.010254
18:04:25,-0.23999,-0.060547,1.075684
18:04:25,0.604248,0.073242,-0.5
18:04:25,2.164795,-0.182861,-1.911621
18:04:25,4.165039,-0.76123,-2.807129
18:04:25,5.540283,-0.524902,-3.875977
18:04:25,4.503418,3.467041,-1.945557
18:04:25,3.223877,7.380371,-0.231934
18:04:25,3.95752,6.22876,-1.478516
18:04:25,4.440186,3.964844,0.146484
18:04:25,2.598145,1.369873,1.015869
18:04:25,2.010254,0.844727,0.433105
18:04:25,1.46875,0.481934,0.068604
18:04:25,0.905518,0.197998,-0.108398
18:04:25,0.526855,0.088867,-0.077148
18:04:25,0.290527,0.102295,-0.023438
18:04:25,0.199707,0.246338,0.174805
18:04:25,0.268066,0.556152,0.230957
18:04:25,0.28125,0.938721,0.061768
18:04:25,0.341553,1.215576,-0.114258
18:04:25,0.340332,1.07666,-0.283203
18:04:25,0.389648,0.575195,-0.116699
18:04:25,0.502441,0.109375,0.084717
18:04:25,0.625,-0.174072,0.250244
18:04:25,0.727051,-0.309814,0.326172
18:04:25,0.865234,-0.358643,0.467529
18:04:25,1.046143,-0.365479,0.674316
18:04:25,1.157471,-0.287598,0.750977
18:04:25,1.110596,-0.147217,0.659668
18:04:25,1.05835,-0.057129,0.759521
18:04:25,1.373535,0.075928,1.178955
18:04:25,1.856934,0.417236,1.262695
18:04:25,2.309082,1.141357,0.655273
18:04:25,2.978271,2.157715,-0.125488
18:04:25,3.515137,2.574951,-0.689209
18:04:25,3.320313,1.668945,-1.063232
18:04:25,3.315918,0.209961,-1.179443
18:04:25,3.558594,-0.789795,-1.835205
18:04:25,2.8479,-1.13208,-2.853027
18:04:25,1.999268,-0.612549,-2.620361
18:04:25,1.083252,0.204346,-2.628906
18:04:25,0.697266,0.331787,-2.856934
18:04:25,1.074219,0.019287,-2.807617
18:04:25,1.753418,-0.486084,-2.868164
18:04:25,1.916504,-0.684082,-3.023193
18:04:25,1.736572,-0.499023,-2.525146
18:04:25,1.498779,-0.165771,-1.941162
18:04:25,1.753174,0.096191,-1.303467
18:04:25,2.638184,0.648193,0.966309
18:04:25,1.434814,0.891602,2.343262
18:04:25,-0.355957,0.216797,0.625488
18:04:25,1.726074,-0.063721,4.876953
18:04:25,-0.051025,-0.068115,0.818115
18:04:25,-0.495361,-0.017822,-1.172363
18:04:25,1.500488,-0.332031,0.385986
18:04:25,3.545654,-0.93042,1.595947
18:04:25,3.237793,-1.55542,-0.273193
18:04:25,3.721191,-0.255127,-2.437988
18:04:25,3.757813,1.7771,-2.189209
18:04:25,1.750977,1.831787,-1.172607
18:04:25,0.54834,0.946533,0.312256
18:04:25,0.28833,0.49707,1.080566
18:04:25,-0.174316,0.318604,0.731201
18:04:25,-0.17041,0.327637,0.830322
18:04:25,0.066162,0.275635,0.997803
18:04:25,0.145508,0.031982,0.871338
18:04:25,0.375244,-0.160889,0.876465
18:04:25,0.629639,-0.205566,0.790771
18:04:25,0.787109,-0.172607,0.5896
18:04:25,0.969238,-0.106689,0.459717
18:04:25,1.091064,-0.064697,0.407227
18:04:25,1.092285,-0.015381,0.408936
18:04:25,1.026855,0.073486,0.444336
18:04:25,0.895264,0.207031,0.47583
18:04:25,0.749268,0.274658,0.521729
18:04:25,0.666016,0.333008,0.565918
18:04:25,0.609131,0.406738,0.609131
18:04:25,0.636719,0.48291,0.533447
18:04:25,0.724854,0.461426,0.532715
18:04:25,0.786377,0.360596,0.50415
18:04:25,0.851807,0.279053,0.482666
18:04:25,0.86084,0.231934,0.508057
18:04:25,0.869385,0.171387,0.524902
18:04:25,0.799561,0.135986,0.53833
18:04:25,0.783691,0.06665,0.677734
18:04:25,0.746338,0.178711,0.563965
18:04:25,0.745605,0.273682,0.617676
18:04:25,0.731689,0.243408,0.713867
18:04:25,0.717773,0.197754,0.740479
18:04:25,0.720703,0.17749,0.80542
18:04:25,0.662354,0.163818,0.833496
18:04:25,0.603516,0.1521,0.837402
18:04:25,0.623047,0.129395,0.838623
18:04:25,0.636719,0.050781,0.816162
18:04:26,0.637207,-0.054688,0.864014
18:04:26,0.621338,-0.163574,0.927002
18:04:26,0.504639,-0.302002,0.960449
18:04:26,0.323486,-0.391846,1.032227
18:04:26,0.134277,-0.400146,0.94043
18:04:26,0.070801,-0.322754,0.964111
18:04:26,-0.238525,-0.273193,1.046387
18:04:26,-0.811768,-0.252686,0.75415
18:04:26,-1.039063,-0.152832,1.044189
18:04:26,0.236328,-0.017334,0.727051
18:04:26,1.810791,0.187744,-1.293945
18:04:26,2.965576,-0.408203,-3.165527
18:04:26,4.093018,-0.211182,-3.010986
18:04:26,6.879395,0.122314,-2.88916
18:04:26,4.335938,4.491211,-2.125488
18:04:26,4.823975,6.950684,-0.605469
18:04:26,5.307373,5.894287,-0.965576
18:04:26,3.116943,2.973145,0.31665
18:04:26,1.813232,1.225342,0.852783
18:04:26,1.135498,0.453857,0.542969
18:04:26,0.821045,0.116211,0.293213
18:04:26,0.812012,-0.091309,0.245605
18:04:26,0.81958,-0.256104,0.229492
18:04:26,0.815186,-0.276611,0.2854
18:04:26,0.799316,-0.025391,0.287842
18:04:26,0.779297,0.514404,0.049561
18:04:26,0.719238,1.143799,-0.354248
18:04:26,0.448242,1.305176,-0.594238
18:04:26,0.170898,0.853271,-0.436768
18:04:26,0.0896,0.30957,-0.172363
18:04:26,0.079102,-0.055176,0.070801
18:04:26,0.247803,-0.242432,0.489014
18:04:26,0.5896,-0.307617,0.866211
18:04:26,0.95166,-0.346191,1.031982
18:04:26,1.159912,-0.383301,0.845215
18:04:26,1.330566,-0.370605,0.753418
18:04:26,1.520264,-0.275146,0.88208
18:04:26,1.765137,0.016846,1.157959
18:04:26,1.970459,0.436279,0.952637
18:04:26,2.060303,0.943848,0.436523
18:04:26,2.710938,1.758301,0.134521
18:04:26,3.295654,2.275391,-0.456055
18:04:26,3.30957,1.499756,-0.84668
18:04:26,3.375977,0.364746,-1.149658
18:04:26,3.714111,-0.899902,-2.143066
18:04:26,3.165527,-1.474121,-2.726807
18:04:26,2.107178,-0.976807,-2.158203
18:04:26,1.211426,-0.117676,-1.944336
18:04:26,0.736572,0.466309,-2.377686
18:04:26,0.735352,0.749756,-2.709473
18:04:26,1.183105,0.471191,-2.580322
18:04:26,1.933105,-0.215576,-2.550537
18:04:26,2.037842,-0.64917,-2.708252
18:04:26,1.558838,-0.522217,-2.30542
18:04:26,1.385742,-0.035156,-1.064941
18:04:26,1.650391,0.693359,-0.177979
18:04:26,1.045898,1.078613,1.25
18:04:26,0.868408,0.556885,2.975586
18:04:26,1.233643,0.078857,2.738281
18:04:26,-0.044678,0.171875,0.094971
18:04:26,0.232422,0.094482,-1.79541
18:04:26,3.671387,-0.802979,1.111328
18:04:26,5.581787,-2.36377,1.166748
18:04:26,3.04248,-1.449463,-2.972412
18:04:26,3.602295,1.060791,-1.90918
18:04:26,2.359131,1.709229,-0.911865
18:04:26,0.42041,1.128906,-0.704346
18:04:26,0.496582,0.965576,0.970703
18:04:26,-0.139893,0.687012,0.995605
18:04:26,-0.593994,0.593018,0.765869
18:04:26,-0.171875,0.614258,1.041016
18:04:26,-0.040283,0.415771,0.979492
18:04:26,0.26001,0.195801,0.904053
18:04:26,0.535645,0.117188,0.65625
18:04:26,0.789551,0.088867,0.49292
18:04:26,1.078857,0.036865,0.414063
18:04:26,1.242432,-0.051025,0.412109
18:04:26,1.246094,-0.066162,0.349121
18:04:26,1.116943,0.058838,0.382568
18:04:26,0.873291,0.213623,0.465576
18:04:26,0.687012,0.332764,0.561035
18:04:26,0.55957,0.432373,0.625732
18:04:26,0.510742,0.522461,0.617188
18:04:26,0.599854,0.526123,0.569336
18:04:26,0.729736,0.401123,0.525391
18:04:26,0.836914,0.241211,0.51123
18:04:26,0.89624,0.105713,0.512207
18:04:26,0.893799,0,0.526123
18:04:26,0.848877,-0.014404,0.553223
18:04:26,0.774658,0.056396,0.580811
18:04:26,0.723389,0.142822,0.614258
18:04:26,0.684082,0.234131,0.579834
18:04:26,0.732178,0.296387,0.542236
18:04:26,0.773926,0.32373,0.537109
18:04:26,0.783691,0.369141,0.499756
18:04:26,0.776611,0.391602,0.562988
18:04:26,0.726318,0.373779,0.664307
18:04:26,0.668701,0.376221,0.673584
18:04:26,0.655762,0.406006,0.703369
18:04:26,0.625244,0.362793,0.717529
18:04:27,0.638672,0.276855,0.748047
18:04:27,0.652344,0.177734,0.749023
18:04:27,0.682129,0.027588,0.757324
18:04:27,0.704834,-0.071045,0.818115
18:04:27,0.692383,-0.165771,0.830078
18:04:27,0.597168,-0.225098,0.810791
18:04:27,0.526367,-0.259277,0.92627
18:04:27,0.368896,-0.203125,0.923584
18:04:27,0.22168,-0.132568,0.902588
18:04:27,0.070557,-0.130615,1.069824
18:04:27,-0.317383,-0.146484,0.888428
18:04:27,-0.770996,-0.161865,1.068359
18:04:27,-0.630371,0.132568,0.580322
18:04:27,1.557129,-0.028809,-0.523682
18:04:27,3.896729,-1.081055,-1.825928
18:04:27,4.02832,-1.379395,-3.611816
18:04:27,3.33667,0.112305,-2.648682
18:04:27,4.060059,4.45752,-0.108887
18:04:27,5.683105,7.999756,-1.832764
18:04:27,5.238037,6.336426,-2.955322
18:04:27,3.786133,2.738281,0.813721
18:04:27,1.732422,0.286133,1.189453
18:04:27,1.311035,-0.097412,0.799561
18:04:27,0.945801,-0.262207,0.408691
18:04:27,0.706055,-0.345703,0.243408
18:04:27,0.561523,-0.390137,0.254883
18:04:27,0.512939,-0.297607,0.332764
18:04:27,0.515381,-0.02417,0.35791
18:04:27,0.514404,0.370117,0.195313
18:04:27,0.55957,0.789795,0.047119
18:04:27,0.567627,1.083008,-0.087646
18:04:27,0.501709,1.021973,-0.237061
18:04:27,0.550781,0.599365,-0.11084
18:04:27,0.556396,0.106201,0.044434
18:04:27,0.595459,-0.268555,0.218506
18:04:27,0.688232,-0.454834,0.408447
18:04:27,0.814209,-0.539063,0.55127
18:04:27,0.981201,-0.550293,0.737549
18:04:27,1.138184,-0.506348,0.835449
18:04:27,1.150635,-0.426514,0.833496
18:04:27,1.314941,-0.300293,1.081787
18:04:27,1.640869,0.038818,1.222168
18:04:27,1.882324,0.599365,0.813232
18:04:27,2.270996,1.39917,0.264648
18:04:27,2.881592,2.205811,-0.362061
18:04:27,3.25708,2.166748,-0.999512
18:04:27,3.55127,1.157471,-1.239746
18:04:27,3.863037,-0.059082,-2.041748
18:04:27,3.367432,-0.87207,-3.309814
18:04:27,2.284424,-0.699219,-3.063477
18:04:27,1.211914,0.04834,-2.499023
18:04:27,0.658203,0.477051,-2.766113
18:04:27,0.66626,0.391113,-2.941895
18:04:27,1.325195,-0.059082,-2.847168
18:04:27,1.831299,-0.497803,-3.067871
18:04:27,1.685791,-0.567383,-2.833496
18:04:27,1.401611,-0.211426,-2.09375
18:04:27,1.288818,0.056641,-1.500244
18:04:27,1.702881,0.652588,-0.160889
18:04:27,2.603271,1.619141,1.471191
18:04:27,-0.12793,0.724609,0.684082
18:04:27,1.261475,-0.266113,3.077393
18:04:27,0.942383,-0.621826,2.654297
18:04:27,-1.091309,-0.289551,-1.360352
18:04:27,0.599121,-0.616211,-0.343994
18:04:27,4.187988,-1.57666,2.819824
18:04:27,2.765137,-1.627197,-0.227783
18:04:27,2.619629,-0.670654,-2.831299
18:04:27,4.305176,1.823975,-2.15918
18:04:27,2.567871,2.671143,-1.935059
18:04:27,0.805908,1.445801,-0.541016
18:04:27,0.492188,0.476074,1.072266
18:04:27,-0.190674,0.109131,0.859619
18:04:27,-0.374268,0.167969,0.71875
18:04:27,-0.088135,0.24707,1.03125
18:04:27,-0.007324,0.118408,1.0979
18:04:27,-0.026855,-0.056641,1.040039
18:04:27,0.296143,-0.041016,0.926758
18:04:27,0.585693,0.10083,0.611816
18:04:27,0.815674,0.181885,0.497559
18:04:27,0.980713,0.229248,0.389404
18:04:27,1.14502,0.234375,0.369141
18:04:27,1.139404,0.242188,0.257813
18:04:27,1.231445,0.325195,0.296875
18:04:27,1.077881,0.412598,0.286133
18:04:27,0.885254,0.452881,0.410156
18:04:27,0.724365,0.392578,0.558105
18:04:27,0.599854,0.349121,0.621094
18:04:27,0.588135,0.291016,0.640625
18:04:27,0.636475,0.222656,0.632813
18:04:27,0.757568,0.236572,0.578857
18:04:27,0.822754,0.30127,0.515869
18:04:27,0.827637,0.321289,0.456787
18:04:27,0.8396,0.284424,0.467041
18:04:27,0.846924,0.231934,0.516846
18:04:27,0.844727,0.200195,0.549561
18:04:27,0.779297,0.223877,0.509766
18:04:27,0.741943,0.221191,0.587646
18:04:27,0.695068,0.239258,0.647217
18:04:27,0.677002,0.289795,0.66748
18:04:28,0.673828,0.296875,0.683594
18:04:28,0.651855,0.27002,0.678711
18:04:28,0.65625,0.236816,0.68457
18:04:28,0.657715,0.161865,0.664795
18:04:28,0.64917,0.051514,0.640381
18:04:28,0.652344,-0.038818,0.667725
18:04:28,0.633301,-0.127441,0.749756
18:04:28,0.471191,-0.195068,0.761963
18:04:28,0.303711,-0.219971,0.814209
18:04:28,0.135742,-0.256348,0.850098
18:04:28,-0.146973,-0.270996,0.800293
18:04:28,-0.080566,0.115967,0.745361
18:04:28,-0.12793,-0.447754,0.972412
18:04:28,1.321533,-0.264404,-0.259521
18:04:28,2.04834,-0.437988,-2.294434
18:04:28,3.992188,-1.187256,-1.838867
18:04:28,6.242676,-1.648926,-3.428467
18:04:28,3.883301,4.286621,-4.680908
18:04:28,4.986572,7.933594,-2.128906
18:04:28,4.206543,6.409424,-0.744873
18:04:28,2.864014,3.007568,0.89917
18:04:28,1.58374,0.765869,1.291992
18:04:28,1.026123,0.171387,1.050049
18:04:28,0.917236,0.195313,0.805908
18:04:28,0.86084,0.157227,0.622559
18:04:28,0.812256,0.010742,0.525146
18:04:28,0.899414,0.0271,0.539063
18:04:28,0.935303,0.30542,0.419189
18:04:28,0.861816,0.657227,0.223877
18:04:28,0.692871,0.781006,0.111084
18:04:28,0.52832,0.546387,0.099609
18:04:28,0.509766,0.102783,0.127441
18:04:28,0.535156,-0.283691,0.073486
18:04:28,0.552979,-0.498291,0.090088
18:04:28,0.643066,-0.644287,0.316895
18:04:28,0.804932,-0.766113,0.569092
18:04:28,0.908447,-0.791504,0.700195
18:04:28,0.98291,-0.729004,0.741455
18:04:28,1.05542,-0.72583,0.772705
18:04:28,1.15332,-0.622559,1.005859
18:04:28,1.594238,-0.371094,1.377197
18:04:28,2.017334,0.143799,1.201416
18:04:28,2.157471,1.05542,0.140381
18:04:28,2.367676,1.826904,-0.262207
18:04:28,3.301514,3.197021,-0.402588
18:04:28,3.172607,3.444092,-1.639893
18:04:28,2.715332,1.929443,-1.43042
18:04:28,2.145996,0.472412,-1.260498
18:04:28,2.529297,-0.715088,-1.406006
18:04:28,3.045898,-1.331787,-2.728027
18:04:28,2.680664,-1.303711,-3.319824
18:04:28,1.425293,-0.730469,-2.531738
18:04:28,0.445557,-0.221191,-2.130859
18:04:28,0.359375,0.171875,-2.341553
18:04:28,1.321289,0.496582,-2.613525
18:04:28,2.032715,0.490479,-3.312988
18:04:28,2.257324,0.348145,-3.250244
18:04:28,1.873779,0.267822,-2.490723
18:04:28,0.963623,0.317139,-0.952393
18:04:28,0.927246,-0.098877,2.198486
18:04:28,1.897949,-0.220459,4.905762
18:04:28,0.487793,0.400391,2.042969
18:04:28,-0.197754,1.403076,-1.669922
18:04:28,2.209961,2.203125,-0.765869
18:04:28,2.034424,0.989502,-0.983154
18:04:28,3.691895,0.032227,0.126221
18:04:28,4.242676,0.367188,-1.368896
18:04:28,2.82373,1.088135,-2.496826
18:04:28,1.989014,-0.033936,-0.025879
18:04:28,0.769043,-0.032959,0.289063
18:04:28,0.664795,0.070068,0.833984
18:04:28,0.241699,0.084961,0.665039
18:04:28,-0.003662,0.190918,0.696045
18:04:28,0.108887,0.232422,1.028809
18:04:28,0.027832,0.3479,0.91748
18:04:28,0.168945,0.485352,0.802979
18:04:28,0.448486,0.55127,0.630127
18:04:28,0.668213,0.616699,0.438721
18:04:28,0.888184,0.635986,0.342773
18:04:28,1.043213,0.582275,0.28833
18:04:28,1.079346,0.461914,0.26123
18:04:28,1.0271,0.295654,0.352295
18:04:28,0.899414,0.138184,0.488281
18:04:28,0.770752,0.041016,0.587158
18:04:28,0.686035,-0.025146,0.631104
18:04:28,0.658691,-0.082275,0.66626
18:04:28,0.688721,-0.060303,0.670898
18:04:28,0.752197,0.071045,0.596924
18:04:28,0.804199,0.230225,0.506592
18:04:28,0.818359,0.357422,0.470459
18:04:28,0.809082,0.44873,0.457031
18:04:28,0.78418,0.476074,0.459473
18:04:28,0.756836,0.440674,0.49707
18:04:28,0.743896,0.378662,0.525635
18:04:28,0.727051,0.303467,0.567871
18:04:28,0.716797,0.2771,0.617188
18:04:28,0.753662,0.303955,0.615723
18:04:28,0.810791,0.337646,0.605225
18:04:28,0.746338,0.356934,0.525146
18:04:29,0.762207,0.304688,0.681885
18:04:29,0.717285,0.260498,0.658691
18:04:29,0.732666,0.215332,0.722656
18:04:29,0.657471,0.141602,0.811279
18:04:29,0.58252,0.083008,0.857422
18:04:29,0.550781,0.025146,0.858398
18:04:29,0.521484,-0.046143,0.870361
18:04:29,0.499756,-0.138916,0.905273
18:04:29,0.406982,-0.198975,0.883301
18:04:29,0.299561,-0.19873,0.87793
18:04:29,0.195801,-0.155762,0.762451
18:04:29,0.026123,-0.124512,0.738281
18:04:29,0.173096,-0.064453,0.781006
18:04:29,0.324707,-0.011719,0.592773
18:04:29,0.388184,-0.319092,0.740479
18:04:29,-0.153564,0.23999,0.375
18:04:29,0.733398,1.425049,-0.098389
18:04:29,2.372559,0.574219,-1.120117
18:04:29,5.29834,-1.866211,-3.934814
18:04:29,6.480713,0.378418,-5.394043
18:04:29,4.945557,6.0625,-1.029297
18:04:29,4.616943,6.714111,2.057129
18:04:29,3.646973,4.085205,-0.267822
18:04:29,2.938965,2.5354,0.513184
18:04:29,1.60498,1.213867,0.824219
18:04:29,0.865479,0.887207,0.463867
18:04:29,0.560547,0.862793,0.488037
18:04:29,0.270996,0.702881,0.511963
18:04:29,0.124756,0.732178,0.461914
18:04:29,0.199951,1.036377,0.422363
18:04:29,0.314941,1.318359,0.281494
18:04:29,0.508789,1.334717,0.16626
18:04:29,0.624023,0.973877,0.093994
18:04:29,0.654541,0.513184,0.124756
18:04:29,0.672852,0.249023,0.098145
18:04:29,0.648193,0.045654,0.068115
18:04:29,0.601563,-0.084961,0.025146
18:04:29,0.566406,-0.178223,0.073486
18:04:29,0.634766,-0.273926,0.30835
18:04:29,0.830811,-0.343018,0.645508
18:04:29,1.021484,-0.335205,0.78125
18:04:29,1.244629,-0.216797,0.801514
18:04:29,1.387451,-0.026123,0.7146
18:04:29,1.34375,0.167236,0.601563
18:04:29,1.374512,0.385254,0.778564
18:04:29,1.7146,0.672852,1.116943
18:04:29,2.221924,1.281494,0.906982
18:04:29,2.720459,2.103271,0.088623
18:04:29,3.082764,2.183594,-0.627441
18:04:29,3.155029,1.334229,-0.984131
18:04:29,3.734131,-0.049316,-1.232422
18:04:29,4.230225,-1.333252,-2.394043
18:04:29,3.108154,-1.391113,-3.565918
18:04:29,1.928223,-0.645752,-2.640381
18:04:29,0.827393,0.232422,-2.575439
18:04:29,0.3396,0.408691,-3.045166
18:04:29,0.678467,0.238281,-2.96875
18:04:29,1.473633,-0.230957,-2.771729
18:04:29,1.89624,-0.458984,-3.08252
18:04:29,1.928467,-0.204346,-2.712158
18:04:29,1.712402,0.083496,-1.872803
18:04:29,1.718506,0.496094,-1.098633
18:04:29,1.712402,0.941162,-0.838623
18:04:29,2.848389,1.272949,1.646484
18:04:29,0.593018,0.712646,1.856201
18:04:29,-0.374512,0.145996,0.921875
18:04:29,0.77832,-0.120361,3.680664
18:04:29,-0.779541,0.018311,0.116943
18:04:29,1.121582,-0.300049,0.829834
18:04:29,3.32666,-0.421875,1.881592
18:04:29,0.42627,-0.18335,-2.12915
18:04:29,5.360352,1.005615,-1.808105
18:04:29,4.91333,1.635742,-2.351807
18:04:29,1.769775,0.894287,-1.209473
18:04:29,1.16333,0.122803,0.791016
18:04:29,0.260498,-0.041992,0.573975
18:04:29,0.019287,0.00708,0.53833
18:04:29,-0.052246,0.082764,0.845459
18:04:29,-0.098877,0.189453,1.112061
18:04:29,-0.219482,0.294189,1.057129
18:04:29,-0.121826,0.379395,1.036865
18:04:29,0.192139,0.456543,0.878906
18:04:29,0.473145,0.485596,0.562012
18:04:29,0.711426,0.378906,0.513672
18:04:29,0.905518,0.198975,0.509277
18:04:29,0.976807,0.059814,0.471191
18:04:29,1.073242,-0.013428,0.410156
18:04:29,1.18335,-0.005615,0.364258
18:04:29,1.163086,0.126221,0.312744
18:04:29,1.020996,0.274658,0.378662
18:04:29,0.844482,0.405518,0.437012
18:04:29,0.696533,0.493408,0.49707
18:04:29,0.584961,0.585449,0.511719
18:04:29,0.571533,0.62915,0.556152
18:04:29,0.62207,0.562988,0.5896
18:04:29,0.702637,0.522705,0.462158
18:04:29,0.85498,0.397217,0.543457
18:04:29,0.850098,0.306885,0.504639
18:04:29,0.811768,0.227051,0.561768
18:04:29,0.756348,0.104248,0.674072
18:04:29,0.708984,0.011719,0.73877
18:04:30,0.700195,-0.016846,0.754639
18:04:30,0.70752,0.030029,0.801514
18:04:30,0.696533,0.134033,0.849854
18:04:30,0.629639,0.240967,0.819336
18:04:30,0.583496,0.329102,0.802002
18:04:30,0.547852,0.344971,0.800537
18:04:30,0.509766,0.255615,0.78125
18:04:30,0.503662,0.101074,0.753662
18:04:30,0.489258,-0.066406,0.767334
18:04:30,0.455811,-0.187256,0.841797
18:04:30,0.308594,-0.258057,0.834473
18:04:30,0.156738,-0.300293,0.994629
18:04:30,-0.110352,-0.32666,1.071533
18:04:30,-0.571777,-0.296143,0.903564
18:04:30,0.217529,-0.336426,0.825928
18:04:30,3.757568,-0.469482,0.318848
18:04:30,4.167236,-0.989502,-2.687744
18:04:30,5.604004,-1.688721,-3.379639
18:04:30,1.858154,1.072998,-2.563965
18:04:30,7.931396,7.804199,-0.12207
18:04:30,3.348389,6.5979,-3.329346
18:04:30,1.806396,2.740479,0.774658
18:04:30,0.458496,0.677246,1.926025
18:04:30,-0.13623,0.571045,1.338623
18:04:30,-0.025879,1.179932,1.359131
18:04:30,-0.220703,1.62793,1.205811
18:04:30,-0.270264,1.628174,0.988281
18:04:30,0.38501,1.312988,0.817627
18:04:30,0.711914,0.805176,0.476318
18:04:30,0.70459,0.393799,0.432617
18:04:30,0.776123,0.133057,0.424805
18:04:30,0.725586,-0.043945,0.144043
18:04:30,0.628906,-0.188721,-0.028809
18:04:30,0.563477,-0.3479,0.010986
18:04:30,0.476563,-0.492188,0.143311
18:04:30,0.470459,-0.557617,0.387939
18:04:30,0.547119,-0.502197,0.617676
18:04:30,0.693604,-0.365479,0.715332
18:04:30,0.880371,-0.232666,0.739746
18:04:30,1.01709,-0.136963,0.705078
18:04:30,1.129395,-0.048584,0.719971
18:04:30,1.349121,0.108643,0.9104
18:04:30,1.799805,0.481445,1.053955
18:04:30,2.051025,1.037842,0.507568
18:04:30,2.031738,1.498779,-0.204102
18:04:30,2.604492,1.994629,-0.360352
18:04:30,3.101807,2.259033,-0.912109
18:04:30,2.796387,1.733154,-1.40625
18:04:30,2.657471,0.665039,-1.216797
18:04:30,2.717041,-0.353027,-1.414307
18:04:30,3.196289,-1.210449,-2.461914
18:04:30,2.76123,-1.31665,-3.098877
18:04:30,1.650391,-0.908447,-2.317627
18:04:30,0.741699,-0.386475,-1.891846
18:04:30,0.39502,0,-2.119873
18:04:30,0.868408,0.339844,-2.328613
18:04:30,1.892334,0.616211,-2.899902
18:04:30,2.393311,0.51416,-2.882813
18:04:30,1.531494,0.455566,-2.890869
18:04:30,0.490967,0.453613,-2.229004
18:04:30,2.619385,-0.162842,2.868408
18:04:30,3.275635,-0.408936,4.150635
18:04:30,0.342529,0.097168,-0.918701
18:04:30,1.130615,-0.008789,-0.994141
18:04:30,2.624512,-0.5979,0.66626
18:04:30,3.15625,-1.25415,0.361816
18:04:30,4.214355,-0.906738,0.634521
18:04:30,1.829102,1.200195,-1.587158
18:04:30,2.392578,1.812256,-0.480225
18:04:30,0.697021,1.108398,-0.372559
18:04:30,0.588867,0.779297,0.718262
18:04:30,0.261475,0.468994,0.903809
18:04:30,0.036133,0.299805,0.69751
18:04:30,0.245361,0.270996,0.801025
18:04:30,0.384521,0.212158,0.737305
18:04:30,0.625488,0.165527,0.603027
18:04:30,0.828613,0.046631,0.562012
18:04:30,0.978027,0.119385,0.460693
18:04:30,1.029541,0.207275,0.317627
18:04:30,1.026367,0.30249,0.358398
18:04:30,0.936523,0.336914,0.460938
18:04:30,0.786621,0.265137,0.561035
18:04:30,0.649658,0.135742,0.60791
18:04:30,0.67041,0.075684,0.605225
18:04:30,0.765381,0.087646,0.567871
18:04:30,0.846191,0.151611,0.500488
18:04:30,0.871094,0.243408,0.481689
18:04:30,0.836914,0.328857,0.472168
18:04:30,0.784668,0.406006,0.474121
18:04:30,0.74292,0.426514,0.492432
18:04:30,0.724365,0.379883,0.507813
18:04:30,0.75708,0.351318,0.528809
18:04:30,0.789307,0.364502,0.519043
18:04:30,0.772949,0.385254,0.490723
18:04:30,0.769287,0.384033,0.521973
18:04:30,0.784668,0.387207,0.533691
18:04:30,0.779297,0.39917,0.502441
18:04:30,0.750977,0.340332,0.574463
18:04:30,0.708984,0.303467,0.637451
18:04:30,0.697021,0.288574,0.651367
18:04:31,0.688721,0.260254,0.697998
18:04:31,0.703125,0.242432,0.724365
18:04:31,0.681152,0.194824,0.733887
18:04:31,0.637695,0.147949,0.717773
18:04:31,0.640625,0.07251,0.718018
18:04:31,0.640381,-0.000488,0.702881
18:04:31,0.62915,-0.088379,0.703369
18:04:31,0.513428,-0.162598,0.681152
18:04:31,0.425781,-0.240234,0.795898
18:04:31,0.29248,-0.286133,0.842285
18:04:31,0.237061,-0.209717,0.982422
18:04:31,-0.248535,-0.306641,0.902344
18:04:31,-0.208984,0.108154,0.664063
18:04:31,1.527344,-0.038574,0.453125
18:04:31,0.893555,0.230713,-1.62085
18:04:31,4.712402,-1.952637,-0.670898
18:04:31,7.512207,-2.948975,-5.022461
18:04:31,7.204834,4.697754,-3.492432
18:04:31,4.370361,7.999756,-0.526855
18:04:31,1.733398,5.881104,-0.037842
18:04:31,0.609863,2.82666,1.669434
18:04:31,-0.297119,0.917236,1.780518
18:04:31,-0.251465,0.69458,1.515137
18:04:31,0.271484,0.695068,1.344727
18:04:31,0.904541,0.576416,1.144775
18:04:31,1.222656,0.480713,0.733643
18:04:31,1.245361,0.536133,0.438721
18:04:31,1.21167,0.553711,0.298584
18:04:31,1.005371,0.422852,0.21167
18:04:31,0.698486,0.264893,0.266113
18:04:31,0.425293,0.199219,0.192871
18:04:31,0.255859,0.10498,0.099365
18:04:31,0.22168,-0.018555,0.289063
18:04:31,0.340088,-0.166504,0.468018
18:04:31,0.548828,-0.281738,0.673096
18:04:31,0.797119,-0.3125,0.763672
18:04:31,1.052246,-0.287598,0.737549
18:04:31,1.229004,-0.215576,0.719971
18:04:31,1.306152,-0.153809,0.697998
18:04:31,1.397949,-0.121582,0.860352
18:04:31,1.791748,0.088135,1.179688
18:04:31,1.987793,0.529297,0.920166
18:04:31,2.114746,1.397949,0.013184
18:04:31,2.569336,2.390625,-0.838623
18:04:31,2.899658,2.382813,-1.265869
18:04:31,2.851074,1.349854,-1.308594
18:04:31,2.775635,0.332031,-1.388916
18:04:31,3.244141,-0.710938,-2.159668
18:04:31,3.393799,-1.619141,-3.530029
18:04:31,2.501221,-1.479248,-3.431641
18:04:31,1.30957,-0.666504,-2.263672
18:04:31,0.536377,-0.126709,-2.077148
18:04:31,0.358398,0.141846,-2.342773
18:04:31,0.864746,0.469727,-2.443115
18:04:31,1.712158,0.756104,-2.634277
18:04:31,2.067627,0.568848,-2.658203
18:04:31,1.828125,0.124756,-1.9104
18:04:31,1.010742,-0.071045,-1.537842
18:04:31,0.474609,-0.191406,-0.104492
18:04:31,1.587891,-0.536865,3.868408
18:04:31,2.658691,-0.309326,3.9104
18:04:31,-0.375,0.284668,-0.814697
18:04:31,0.560303,0.148682,-1.038818
18:04:31,3.977783,0.061523,1.861572
18:04:31,3.986572,-0.009766,-0.658447
18:04:31,3.418213,1.565186,-3.205566
18:04:31,3.146973,1.616211,-1.761475
18:04:31,1.378418,0.383301,-0.235596
18:04:31,0.854004,-0.087891,0.812012
18:04:31,0.377197,-0.135254,0.697021
18:04:31,0.033936,-0.10791,0.50293
18:04:31,0.096924,-0.059814,0.917969
18:04:31,-0.577881,-0.090332,1.363037
18:04:31,-0.27002,0.229004,1.119629
18:04:31,0.440674,0.406738,0.748535
18:04:31,0.5979,0.30127,0.563721
18:04:31,0.76709,0.255371,0.550293
18:04:31,0.946533,0.317871,0.395508
18:04:31,1.138672,0.355469,0.264648
18:04:31,1.29248,0.291992,0.312988
18:04:31,1.195068,0.187988,0.312744
18:04:31,1.002686,0.140381,0.385254
18:04:31,0.796143,0.166504,0.530029
18:04:31,0.661621,0.229492,0.617188
18:04:31,0.586182,0.310303,0.615234
18:04:31,0.598145,0.387695,0.597168
18:04:31,0.66748,0.458984,0.522705
18:04:31,0.776611,0.486084,0.452637
18:04:31,0.841309,0.44165,0.437744
18:04:31,0.860352,0.377197,0.476807
18:04:31,0.843262,0.327393,0.518555
18:04:31,0.838867,0.377686,0.516602
18:04:31,0.731934,0.389648,0.548828
18:04:31,0.625244,0.299805,0.716797
18:04:31,0.713623,0.268555,0.633301
18:04:31,0.702881,0.244141,0.570801
18:04:31,0.728516,0.155029,0.70459
18:04:31,0.742676,0.110596,0.675293
18:04:31,0.795898,0.122803,0.718506
18:04:32,0.76123,0.113525,0.740234
18:04:32,0.682617,0.104004,0.798828
18:04:32,0.616699,0.133545,0.80542
18:04:32,0.552002,0.144043,0.800293
18:04:32,0.508301,0.083252,0.7771
18:04:32,0.491943,0.012939,0.758057
18:04:32,0.484375,-0.053223,0.776611
18:04:32,0.393311,-0.14624,0.800537
18:04:32,0.259766,-0.220459,0.950195
18:04:32,0.066162,-0.260254,1.036377
18:04:32,-0.357422,-0.239746,0.980225
18:04:32,-0.716797,0.078125,0.643555
18:04:32,1.399658,0.003418,0.721436
18:04:32,4.594971,-0.994141,-0.248779
18:04:32,4.291748,-1.438232,-4.13208
18:04:32,4.751221,1.074463,-3.5
18:04:32,5.906494,6.555176,0.080078
18:04:32,4.255859,7.081055,-2.246338
18:04:32,3.448242,4.386719,0.323486
18:04:32,2.273926,1.748779,1.751953
18:04:32,0.541748,0.423096,1.275146
18:04:32,0.497559,0.675781,1.287842
18:04:32,0.292725,0.958496,1.106201
18:04:32,0.228027,1.044678,1.081787
18:04:32,0.574951,1.061035,0.935303
18:04:32,0.853271,1.092773,0.547607
18:04:32,1.062012,0.914551,0.34668
18:04:32,1.197021,0.62915,0.319092
18:04:32,1.183105,0.396484,0.163818
18:04:32,1.013184,0.235352,-0.008301
18:04:32,0.70166,0.083984,-0.123535
18:04:32,0.412842,-0.068115,-0.099854
18:04:32,0.31665,-0.154541,0.050781
18:04:32,0.329102,-0.206787,0.201904
18:04:32,0.39209,-0.23877,0.417236
18:04:32,0.574219,-0.18042,0.659912
18:04:32,0.885254,-0.029785,0.816162
18:04:32,1.257324,0.154053,0.824219
18:04:32,1.499268,0.320313,0.70459
18:04:32,1.63208,0.548828,0.617676
18:04:32,1.972412,1.056641,0.597656
18:04:32,2.318359,1.755127,0.217285
18:04:32,2.422363,2.103027,-0.517334
18:04:32,2.650879,1.721924,-0.721436
18:04:32,2.817871,0.917969,-0.640381
18:04:32,3.007324,0.178955,-1.07959
18:04:32,3.608887,-0.584961,-1.791016
18:04:32,3.128174,-1.031494,-3.178223
18:04:32,2.462891,-0.90332,-2.872559
18:04:32,1.40332,-0.299072,-2.286133
18:04:32,0.732422,0.039551,-2.383545
18:04:32,0.568604,0.126465,-2.501953
18:04:32,1.119873,0.111084,-2.49585
18:04:32,1.775146,0.023926,-2.734131
18:04:32,1.936035,-0.062988,-2.860107
18:04:32,1.504883,0,-2.259033
18:04:32,1.352783,0.156494,-1.43457
18:04:32,1.229248,0.589111,-0.881592
18:04:32,0.956787,0.811279,0.157715
18:04:32,0.822021,0.302979,2.077393
18:04:32,2.246826,-0.280029,3.9646
18:04:32,0.208984,-0.186768,0.255615
18:04:32,0.786377,-0.303711,-0.448242
18:04:32,4.743408,0.022217,0.040771
18:04:32,4.541748,1.315918,-3.105225
18:04:32,3.175537,1.458252,-2.991943
18:04:32,2.112305,0.371826,-0.321045
18:04:32,0.750244,-0.173096,0.711426
18:04:32,0.468506,-0.158936,0.914795
18:04:32,0.054443,-0.108643,0.556641
18:04:32,-0.059082,-0.094727,0.810059
18:04:32,-0.491455,-0.146973,1.460449
18:04:32,-0.759033,0.032471,1.319092
18:04:32,0.480957,0.451904,0.784424
18:04:32,0.654785,0.372559,0.606934
18:04:32,0.613281,0.312744,0.452393
18:04:32,0.945801,0.392822,0.476563
18:04:32,1.065674,0.439453,0.309326
18:04:32,1.217041,0.374756,0.313965
18:04:32,1.194092,0.241211,0.344727
18:04:32,1.02417,0.21875,0.34668
18:04:32,0.848633,0.249023,0.496582
18:04:32,0.683838,0.276855,0.571777
18:04:32,0.587891,0.333252,0.635742
18:04:32,0.529785,0.40332,0.648438
18:04:32,0.571289,0.505859,0.579346
18:04:32,0.676758,0.612549,0.529785
18:04:32,0.747559,0.616211,0.469238
18:04:32,0.812988,0.628418,0.411133
18:04:32,0.845215,0.520752,0.506836
18:04:32,0.841064,0.422119,0.487305
18:04:32,0.803467,0.336914,0.485107
18:04:32,0.755127,0.18042,0.615234
18:04:32,0.702393,0.092773,0.660156
18:04:32,0.675781,0.085693,0.634521
18:04:32,0.710938,0.05835,0.654297
18:04:32,0.740479,0.040771,0.681396
18:04:32,0.739258,0.090088,0.69458
18:04:32,0.7229,0.180176,0.711426
18:04:32,0.654541,0.241455,0.719482
18:04:32,0.5896,0.258057,0.727295
18:04:33,0.565186,0.241699,0.728516
18:04:33,0.537354,0.177979,0.650391
18:04:33,0.537109,0.072998,0.605957
18:04:33,0.533691,-0.052246,0.715332
18:04:33,0.396729,-0.17041,0.711182
18:04:33,0.187012,-0.270996,0.74707
18:04:33,0.025146,-0.327637,0.739258
18:04:33,0.230713,-0.267334,0.982422
18:04:33,0.848633,-0.340332,0.916016
18:04:33,1.153564,-0.134033,0.022705
18:04:33,3.665527,-0.852783,-0.893066
18:04:33,3.746094,-1.397461,-3.115234
18:04:33,3.23291,-0.633301,-2.856689
18:04:33,5.524658,5.627686,0.699707
18:04:33,2.919189,7.616943,-4.27002
18:04:33,4.465088,5.906006,-0.450684
18:04:33,3.080322,2.456787,1.237061
18:04:33,1.280518,0.45874,1.192139
18:04:33,0.897949,0.350098,1.299316
18:04:33,0.646973,0.815674,0.926514
18:04:33,0.470947,1.049072,0.707275
18:04:33,0.544922,1.111572,0.641846
18:04:33,0.72168,1.099609,0.442871
18:04:33,0.822266,0.934326,0.375488
18:04:33,0.763672,0.760742,0.339111
18:04:33,0.62085,0.635742,0.232666
18:04:33,0.490234,0.473145,0.19751
18:04:33,0.425293,0.293945,0.14209
18:04:33,0.460693,0.116699,0.135254
18:04:33,0.568359,-0.025146,0.212646
18:04:33,0.618896,-0.128174,0.226074
18:04:33,0.612061,-0.166504,0.221191
18:04:33,0.658203,-0.147949,0.370361
18:04:33,0.798096,-0.099854,0.524902
18:04:33,1.050537,-0.069824,0.638672
18:04:33,1.245361,-0.02417,0.623779
18:04:33,1.362549,0.050781,0.632813
18:04:33,1.595947,0.367188,0.750488
18:04:33,2.071045,0.987793,0.648438
18:04:33,2.321777,1.64624,-0.084961
18:04:33,2.588867,1.999023,-0.646973
18:04:33,2.854004,1.797852,-0.70874
18:04:33,2.720215,1.210938,-0.805908
18:04:33,2.389893,0.549561,-1.099854
18:04:33,2.502686,-0.09082,-1.202148
18:04:33,3.015381,-0.98291,-1.802734
18:04:33,2.973877,-1.417236,-2.833496
18:04:33,2.132324,-1.129883,-2.690186
18:04:33,1.116455,-0.480469,-2.225098
18:04:33,0.613037,0.041016,-2.348633
18:04:33,0.975586,0.322021,-2.609375
18:04:33,1.694336,0.232178,-2.897705
18:04:33,2.032959,-0.117188,-2.96582
18:04:33,1.857178,-0.297852,-2.268555
18:04:33,1.434326,0.016113,-1.537109
18:04:33,0.901123,0.727295,-1.213135
18:04:33,0.712158,0.864258,0.912842
18:04:33,2.092285,0.063477,4.172363
18:04:33,2.205566,-0.315674,2.668213
18:04:33,-0.622803,-0.053467,-1.878418
18:04:33,1.83374,-0.668701,-0.553467
18:04:33,5.3396,-1.507568,1.824219
18:04:33,2.973877,0.001709,-2.724121
18:04:33,3.754883,2.195313,-2.246338
18:04:33,1.932861,1.449463,-1.218506
18:04:33,0.821533,0.467529,0.175049
18:04:33,0.617676,0.158447,1.064209
18:04:33,0.067139,0.047607,0.720947
18:04:33,-0.078369,0.043701,0.700928
18:04:33,0.055176,0.119873,1.149658
18:04:33,-0.011963,0.114502,1.010986
18:04:33,0.174561,0.070801,0.992188
18:04:33,0.408447,0.153809,0.807617
18:04:33,0.605957,0.269043,0.5271
18:04:33,0.826904,0.351074,0.399902
18:04:33,1.067627,0.358398,0.383789
18:04:33,1.187256,0.319824,0.333496
18:04:33,1.19751,0.252441,0.283447
18:04:33,1.074951,0.226318,0.337158
18:04:33,0.877686,0.241211,0.450439
18:04:33,0.707275,0.253906,0.561279
18:04:33,0.603027,0.281494,0.621094
18:04:33,0.587402,0.348389,0.588867
18:04:33,0.66748,0.428955,0.517334
18:04:33,0.780518,0.461914,0.445068
18:04:33,0.876465,0.45166,0.431396
18:04:33,0.896484,0.464355,0.470215
18:04:33,0.839355,0.447998,0.45166
18:04:33,0.824951,0.381592,0.441162
18:04:33,0.74292,0.346436,0.468994
18:04:33,0.71582,0.218506,0.593018
18:04:33,0.735596,0.159668,0.560547
18:04:33,0.736084,0.15625,0.5625
18:04:33,0.752197,0.175781,0.560059
18:04:33,0.769531,0.207764,0.550781
18:04:33,0.812012,0.251709,0.62793
18:04:33,0.750732,0.265137,0.655762
18:04:33,0.662598,0.324951,0.715576
18:04:33,0.586182,0.345703,0.734375
18:04:33,0.538086,0.314209,0.72583
18:04:34,0.498535,0.19165,0.664795
18:04:34,0.541504,0.038818,0.671387
18:04:34,0.525879,-0.087402,0.524658
18:04:34,0.526367,-0.207275,0.611572
18:04:34,0.402588,-0.342285,0.766113
18:04:34,0.15332,-0.425537,0.751709
18:04:34,0.241211,-0.321777,0.750977
18:04:34,0.679932,-0.28125,0.898193
18:04:34,-0.409668,0.048096,0.256104
18:04:34,1.606934,-0.120361,0.082031
18:04:34,4.677246,-1.075928,-1.345215
18:04:34,3.546143,-1.610596,-3.921387
18:04:34,4.390137,2.696045,-2.311035
18:04:34,5.496826,7.999756,-1.630615
18:04:34,3.477539,6.645752,-2.338867
18:04:34,3.494141,3.016113,1.355469
18:04:34,2.202148,0.652588,1.746094
18:04:34,0.956299,-0.054932,1.092529
18:04:34,0.929932,0.36377,1.081299
18:04:34,0.71582,0.727295,0.879883
18:04:34,0.53418,0.946533,0.743408
18:04:34,0.706543,1.206299,0.680664
18:04:34,0.892334,1.261719,0.44751
18:04:34,1.063721,0.912842,0.44873
18:04:34,1.142822,0.591797,0.383057
18:04:34,1.125488,0.36084,0.204102
18:04:34,1.014648,0.170166,0.071289
18:04:34,0.753906,-0.014648,-0.031738
18:04:34,0.508545,-0.082275,-0.156738
18:04:34,0.30835,-0.150391,-0.225098
18:04:34,0.213379,-0.252686,-0.074219
18:04:34,0.341797,-0.35498,0.405518
18:04:34,0.706787,-0.411377,0.93042
18:04:34,0.993896,-0.371826,0.813477
18:04:34,1.224854,-0.314941,0.604492
18:04:34,1.491699,-0.254883,0.693848
18:04:34,1.737061,-0.014648,0.705566
18:04:34,2.121094,0.665283,0.408447
18:04:34,2.408447,1.51416,-0.230225
18:04:34,2.661621,2.291992,-0.880615
18:04:34,2.805664,2.351563,-1.140625
18:04:34,2.549316,1.446777,-1.013672
18:04:34,2.192139,0.521729,-0.959229
18:04:34,2.032227,0.048096,-1.205322
18:04:34,2.483154,-0.546631,-1.427734
18:04:34,2.888672,-1.217773,-2.182373
18:04:34,2.115723,-1.183594,-3.039307
18:04:34,1.504883,-0.92749,-2.227295
18:04:34,0.932861,-0.379639,-1.973633
18:04:34,0.899658,0.074463,-2.347168
18:04:34,1.448242,0.46167,-2.700928
18:04:34,1.959717,0.644775,-3.044189
18:04:34,2.087158,0.233398,-2.827148
18:04:34,1.752686,-0.097412,-1.950195
18:04:34,1.174072,0.154541,-1.253906
18:04:34,0.795898,0.57666,-0.4646
18:04:34,1.08667,0.237305,2.894043
18:04:34,2.654053,-0.377441,3.755615
18:04:34,0.552979,0.050781,0.772949
18:04:34,-0.240723,-0.006592,-1.93042
18:04:34,1.976807,-0.258057,0.293457
18:04:34,5.495605,-1.26709,2.034424
18:04:34,3.187744,-0.28418,-1.557617
18:04:34,3.697021,2.19458,-2.30957
18:04:34,2.510498,1.604492,-1.232178
18:04:34,0.833008,0.315918,0.166748
18:04:34,0.579102,0.010498,1.05835
18:04:34,0.126709,-0.065918,0.766602
18:04:34,0.025391,-0.106445,0.734375
18:04:34,0.198975,-0.097168,1.020996
18:04:34,0.139648,-0.076416,1.010498
18:04:34,0.181152,-0.120361,0.964355
18:04:34,0.460449,-0.061035,0.857178
18:04:34,0.652344,0.068604,0.570557
18:04:34,0.773682,0.177002,0.397705
18:04:34,0.967285,0.251465,0.468506
18:04:34,1.059814,0.341309,0.390381
18:04:34,1.087646,0.411865,0.289795
18:04:34,1.063477,0.469971,0.2854
18:04:34,0.935791,0.497314,0.362793
18:04:34,0.771973,0.424805,0.474609
18:04:34,0.676514,0.350342,0.586426
18:04:34,0.624512,0.294922,0.593262
18:04:34,0.671631,0.296631,0.5625
18:04:34,0.759521,0.296875,0.503662
18:04:34,0.837646,0.291016,0.456055
18:04:34,0.861084,0.374268,0.449951
18:04:34,0.835938,0.459229,0.481445
18:04:34,0.810547,0.476074,0.47583
18:04:34,0.727783,0.443604,0.428955
18:04:34,0.75708,0.36377,0.523193
18:04:34,0.727295,0.252686,0.525635
18:04:34,0.745605,0.175293,0.539551
18:04:34,0.774658,0.115967,0.514893
18:04:34,0.813232,0.117676,0.570801
18:04:34,0.776367,0.162109,0.605469
18:04:34,0.706055,0.216309,0.665283
18:04:34,0.661621,0.295654,0.698242
18:04:34,0.621338,0.356934,0.669678
18:04:34,0.5979,0.319336,0.668213
18:04:35,0.593018,0.190918,0.650391
18:04:35,0.586426,0.053955,0.568115
18:04:35,0.598145,-0.071533,0.581787
18:04:35,0.536377,-0.213135,0.737061
18:04:35,0.323486,-0.344727,0.757324
18:04:35,0.162354,-0.45874,0.886475
18:04:35,-0.014648,-0.323242,0.830078
18:04:35,0.031982,0.151367,0.658203
18:04:35,0.367432,-0.33374,0.387451
18:04:35,3.201904,-0.602051,-0.765869
18:04:35,2.241699,-0.75415,-2.968018
18:04:35,5.462402,-1.775879,-3.591797
18:04:35,3.594238,1.002686,-4.452148
18:04:35,7.483643,7.80957,-0.607422
18:04:35,2.137207,6.391602,-2.988281
18:04:35,2.863525,4.198975,1.776123
18:04:35,1.032227,1.575684,1.768555
18:04:35,0.081543,0.64502,1.192627
18:04:35,0.303223,0.725098,1.25
18:04:35,0.627686,0.708984,1.205811
18:04:35,1.030273,0.745117,0.873779
18:04:35,1.516113,0.990723,0.462158
18:04:35,1.838379,1.074707,0.144287
18:04:35,1.862305,0.80835,-0.032471
18:04:35,1.644043,0.449463,-0.145264
18:04:35,1.253662,0.239502,-0.231934
18:04:35,0.800049,0.213867,-0.30542
18:04:35,0.389648,0.23999,-0.393555
18:04:35,0.046143,0.181152,-0.4375
18:04:35,-0.140625,0.094971,-0.404297
18:04:35,-0.091064,0.027344,-0.172607
18:04:35,0.261475,-0.076904,0.460449
18:04:35,0.744873,-0.183105,1.044678
18:04:35,0.981201,-0.230957,0.991943
18:04:35,1.293457,-0.158691,0.795654
18:04:35,1.734375,0.056641,0.794922
18:04:35,2.054443,0.554932,0.55542
18:04:35,2.532471,1.547852,0.123047
18:04:35,2.784424,2.518555,-0.912109
18:04:35,2.809326,2.425049,-1.276611
18:04:35,2.667236,1.459961,-0.971191
18:04:35,2.263428,0.509766,-0.90625
18:04:35,2.097412,-0.071533,-1.008789
18:04:35,2.626465,-0.706787,-1.065674
18:04:35,2.848877,-1.319092,-1.927002
18:04:35,2.407471,-1.299805,-2.431885
18:04:35,1.635742,-0.84082,-1.907959
18:04:35,0.981201,-0.267334,-1.831787
18:04:35,0.961182,0.202881,-2.143555
18:04:35,1.435547,0.711426,-2.649658
18:04:35,1.768799,0.716064,-3.054688
18:04:35,1.944336,0.098145,-2.79248
18:04:35,1.597412,-0.35376,-2.188965
18:04:35,1.171875,-0.394531,-1.627441
18:04:35,1.299316,-0.258789,-0.477783
18:04:35,1.454346,0.276123,-0.00415
18:04:35,0.73291,0.656738,0.841797
18:04:35,1.171387,0.15918,2.402344
18:04:35,1.8479,-0.239014,3.002197
18:04:35,-0.21875,0.00415,0.077637
18:04:35,-0.411377,0.076904,-2.273193
18:04:35,3.249023,-0.115234,1.447266
18:04:35,4.418457,-0.044434,0.621582
18:04:35,3.5,1.326904,-3.192383
18:04:35,4.380127,2.473877,-2.728516
18:04:35,1.55542,0.12915,-0.591553
18:04:35,0.793213,-0.250977,0.709473
18:04:35,0.506104,-0.337891,0.830322
18:04:35,0.043213,-0.2771,0.464111
18:04:35,0.015381,-0.289063,0.824707
18:04:35,-0.333496,-0.469238,1.550293
18:04:35,-0.780273,-0.387451,1.348389
18:04:35,0.165771,-0.032227,0.832275
18:04:35,0.586914,0.147217,0.767822
18:04:35,0.541504,0.281006,0.374023
18:04:35,0.813721,0.435303,0.379883
18:04:35,1.031006,0.540771,0.349854
18:04:35,1.194824,0.609863,0.200195
18:04:35,1.317627,0.666748,0.077148
18:04:35,1.269287,0.604736,0.106201
18:04:35,1.03418,0.455811,0.300781
18:04:35,0.779541,0.297607,0.493896
18:04:35,0.609619,0.198975,0.619873
18:04:35,0.544922,0.17627,0.650635
18:04:35,0.583252,0.197754,0.600342
18:04:35,0.706055,0.230225,0.518066
18:04:35,0.851807,0.316406,0.475342
18:04:35,0.902588,0.443115,0.439941
18:04:35,0.866211,0.5625,0.344727
18:04:35,0.819336,0.618896,0.352295
18:04:35,0.761963,0.519775,0.476807
18:04:35,0.745361,0.409424,0.489258
18:04:35,0.748291,0.335205,0.470947
18:04:35,0.757324,0.196533,0.589844
18:04:35,0.783691,0.123779,0.633545
18:04:35,0.755371,0.103516,0.650879
18:04:35,0.692383,0.091553,0.712158
18:04:35,0.650635,0.098389,0.735352
18:04:35,0.622314,0.160889,0.716064
18:04:35,0.593018,0.203125,0.670898
18:04:36,0.562012,0.174316,0.625977
18:04:36,0.612061,0.103027,0.631348
18:04:36,0.506836,0.015137,0.501953
18:04:36,0.564941,-0.069336,0.598145
18:04:36,0.303955,-0.20459,0.723877
18:04:36,0.453369,-0.348877,0.605957
18:04:36,0.249023,0.009033,0.397705
18:04:36,0.481445,-0.07959,1.149414
18:04:36,0.325684,-0.38623,0.756104
18:04:36,1.82666,-0.462891,-0.44165
18:04:36,0.673584,-0.017578,-2.888184
18:04:36,4.185547,-2.523682,-1.509277
18:04:36,4.048096,0.316406,-2.984619
18:04:36,5.707764,7.30127,-4.336426
18:04:36,6.313477,6.976074,-2.912354
18:04:36,3.588867,3.036377,0.424805
18:04:36,3.143311,1.224609,2.625
18:04:36,0.781006,0.473633,0.724365
18:04:36,0.705322,0.889893,0.786377
18:04:36,0.531738,1.124756,0.650879
18:04:36,0.393799,1.044922,0.541504
18:04:36,0.647705,0.945313,0.52124
18:04:36,0.84375,0.828369,0.405762
18:04:36,0.986572,0.760498,0.317871
18:04:36,1.020264,0.678711,0.225098
18:04:36,0.966553,0.550049,0.120117
18:04:36,0.824463,0.400146,0.036865
18:04:36,0.706787,0.269287,-0.005615
18:04:36,0.575439,0.153809,-0.078857
18:04:36,0.518066,0.095947,-0.063965
18:04:36,0.457764,0.050049,-0.010986
18:04:36,0.413574,0.033447,0.123779
18:04:36,0.513184,0.018799,0.356201
18:04:36,0.799316,0.005615,0.602539
18:04:36,1.151855,-0.029541,0.583008
18:04:36,1.534912,-0.06543,0.564697
18:04:36,1.96167,0.190186,0.516113
18:04:36,2.384033,0.954102,0.209229
18:04:36,2.591797,1.816895,-0.499756
18:04:36,2.582275,1.995605,-0.889648
18:04:36,2.524902,1.497559,-0.69043
18:04:36,2.408936,0.972412,-0.699463
18:04:36,2.250488,0.561523,-0.992676
18:04:36,2.348877,0.076904,-1.15625
18:04:36,2.77417,-0.575684,-1.589355
18:04:36,2.738281,-0.980713,-2.407959
18:04:36,1.943115,-0.845215,-2.4729
18:04:36,1.190186,-0.381836,-1.900146
18:04:36,0.906982,0.237061,-2.039307
18:04:36,1.067383,0.675293,-2.510742
18:04:36,1.412109,0.775635,-2.784668
18:04:36,1.696289,0.156982,-2.640137
18:04:36,1.706055,-0.437988,-2.255371
18:04:36,1.316895,-0.518799,-1.858887
18:04:36,1.155273,-0.328857,-1.211426
18:04:36,1.206543,0.000977,0.125488
18:04:36,1.192383,1.056152,-0.07251
18:04:36,1.020752,1.104736,1.476318
18:04:36,1.527344,0.712646,2.418945
18:04:36,1.296631,0.612549,1.791016
18:04:36,-0.528076,0.384766,-1.740723
18:04:36,3.109375,-0.373047,-0.03833
18:04:36,5.716797,-1.421387,1.376465
18:04:36,2.340088,-1.331055,-0.723389
18:04:36,3.191162,-0.016113,-0.765625
18:04:36,2.412109,0.595703,-0.810059
18:04:36,1.123779,0.665527,-0.374512
18:04:36,0.795654,0.590088,0.609619
18:04:36,0.406494,0.446289,0.810791
18:04:36,0.082031,0.320557,0.747803
18:04:36,0.09082,0.302002,0.860107
18:04:36,0.239014,0.25708,0.787354
18:04:36,0.466553,0.105469,0.738037
18:04:36,0.748047,0.015381,0.699463
18:04:36,0.926514,0.037598,0.464844
18:04:36,1.041504,0.119141,0.303223
18:04:36,1.139893,0.230957,0.318848
18:04:36,1.04248,0.317139,0.424316
18:04:36,0.834961,0.38623,0.473389
18:04:36,0.682373,0.403076,0.448486
18:04:36,0.603027,0.375732,0.587891
18:04:36,0.622314,0.420166,0.565674
18:04:36,0.726563,0.451172,0.489502
18:04:36,0.813232,0.400391,0.479004
18:04:36,0.862549,0.387207,0.450684
18:04:36,0.841309,0.354004,0.453857
18:04:36,0.811523,0.278564,0.468506
18:04:36,0.797119,0.204102,0.45166
18:04:36,0.798828,0.215332,0.54126
18:04:36,0.751709,0.25708,0.568359
18:04:36,0.776855,0.323975,0.480225
18:04:36,0.77832,0.311523,0.461426
18:04:36,0.804443,0.236328,0.504639
18:04:36,0.829834,0.189209,0.527344
18:04:36,0.807861,0.188477,0.536865
18:04:36,0.78833,0.241211,0.580811
18:04:36,0.763672,0.294678,0.590088
18:04:36,0.736572,0.341553,0.618896
18:04:36,0.68457,0.387207,0.659424
18:04:37,0.627197,0.384766,0.688477
18:04:37,0.589111,0.330566,0.729492
18:04:37,0.562256,0.27124,0.716553
18:04:37,0.578613,0.191162,0.67749
18:04:37,0.594482,0.060547,0.661133
18:04:37,0.526611,-0.068848,0.602539
18:04:37,0.447754,-0.171631,0.636963
18:04:37,0.347656,-0.287598,0.807861
18:04:37,0.117676,-0.366455,0.790283
18:04:37,0.134766,-0.290283,0.773193
18:04:37,0.365967,-0.049561,0.799561
18:04:37,0.24292,0.127441,0.067627
18:04:37,1.347168,0.026367,-0.866699
18:04:37,2.952148,-0.142822,-3.113037
18:04:37,6.362549,-1.660156,-3.381104
18:04:37,4.797119,1.701416,-4.397949
18:04:37,6.406006,7.999756,-0.007568
18:04:37,2.45166,4.718018,-1.51416
18:04:37,3.527344,3.102295,1.932861
18:04:37,2.005615,1.151611,1.400879
18:04:37,1.275635,0.554443,1.108643
18:04:37,1.024902,0.806152,0.967041
18:04:37,0.707031,1.182861,0.732666
18:04:37,0.730713,1.456299,0.671387
18:04:37,0.865723,1.442627,0.477783
18:04:37,0.912598,1.026123,0.4021
18:04:37,0.888428,0.607178,0.395508
18:04:37,0.866943,0.359863,0.340576
18:04:37,0.856934,0.215332,0.238525
18:04:37,0.772949,0.115967,0.066895
18:04:37,0.621338,0.041992,-0.053223
18:04:37,0.511475,-0.058594,-0.034912
18:04:37,0.489746,-0.181641,0.049561
18:04:37,0.536621,-0.286865,0.216797
18:04:37,0.644531,-0.361572,0.43335
18:04:37,0.795166,-0.347168,0.579346
18:04:37,0.996582,-0.234375,0.64624
18:04:37,1.289795,-0.085205,0.643799
18:04:37,1.575928,0.064697,0.641113
18:04:37,1.762695,0.296875,0.615723
18:04:37,2.002686,0.825684,0.473389
18:04:37,2.394043,1.620361,0.016357
18:04:37,2.60791,2.177002,-0.73877
18:04:37,2.747314,1.952881,-1.044189
18:04:37,2.704346,1.067627,-0.844727
18:04:37,2.482178,0.28418,-1.057861
18:04:37,2.617432,-0.218018,-1.378174
18:04:37,3.045898,-0.904297,-1.924316
18:04:37,2.709473,-0.980957,-2.700195
18:04:37,1.888184,-0.682617,-2.450928
18:04:37,1.070313,-0.182861,-2.252197
18:04:37,0.633301,0.163818,-2.4375
18:04:37,0.766113,0.422852,-2.579102
18:04:37,1.595703,0.503662,-2.744873
18:04:37,2.213135,0.071045,-3.115723
18:04:37,2.192383,-0.408691,-2.842285
18:04:37,1.570557,-0.372314,-2.065674
18:04:37,1.343994,-0.051758,-0.935303
18:04:37,1.98584,0.713623,0.351563
18:04:37,1.274658,1.227783,1.65918
18:04:37,0.129883,0.570068,1.436035
18:04:37,1.557617,-0.312012,3.218262
18:04:37,0.984619,-0.287109,2.11499
18:04:37,-0.470703,-0.223145,-1.476318
18:04:37,3.297607,0.237305,0.691162
18:04:37,4.65332,1.176025,-0.802734
18:04:37,2.782471,0.881592,-3.551025
18:04:37,3.691162,0.750977,-1.116699
18:04:37,1.248047,-0.000732,-0.077148
18:04:37,0.7229,-0.189941,0.884033
18:04:37,0.317871,-0.157959,0.779785
18:04:37,-0.032227,-0.021973,0.561279
18:04:37,-0.05249,0.106201,0.827393
18:04:37,-0.095215,0.318115,1.129639
18:04:37,-0.32373,0.491943,1.150635
18:04:37,0.099854,0.638916,0.866211
18:04:37,0.457275,0.631836,0.564453
18:04:37,0.701416,0.510498,0.45752
18:04:37,0.916748,0.311523,0.464355
18:04:37,1.08667,0.063965,0.49585
18:04:37,1.121826,-0.102051,0.376953
18:04:37,1.280762,-0.158691,0.38916
18:04:37,1.148682,-0.154053,0.397949
18:04:37,0.956543,-0.050049,0.533936
18:04:37,0.756836,0.124756,0.58667
18:04:37,0.602783,0.318359,0.594971
18:04:37,0.546875,0.47998,0.573242
18:04:37,0.588135,0.599609,0.512695
18:04:37,0.708496,0.644043,0.509277
18:04:37,0.808594,0.613037,0.493652
18:04:37,0.856445,0.49707,0.464355
18:04:37,0.844727,0.338135,0.453369
18:04:37,0.800781,0.197754,0.479248
18:04:37,0.79126,0.072266,0.556885
18:04:37,0.767334,0.005615,0.55542
18:04:37,0.748047,-0.003662,0.53125
18:04:37,0.775146,0.0271,0.548096
18:04:37,0.807861,0.113281,0.551025
18:04:37,0.800537,0.26123,0.55835
18:04:37,0.719482,0.388672,0.560791
18:04:37,0.67334,0.472168,0.645508
18:04:38,0.600342,0.536621,0.606689
18:04:38,0.577148,0.50708,0.610352
18:04:38,0.594482,0.366943,0.624512
18:04:38,0.609375,0.175781,0.594238
18:04:38,0.578857,-0.000977,0.559814
18:04:38,0.601563,-0.150879,0.645264
18:04:38,0.483154,-0.28418,0.6875
18:04:38,0.344238,-0.449707,0.81543
18:04:38,0.07666,-0.519287,0.815918
18:04:38,0.140137,0.013916,0.566162
18:04:38,-0.333496,-0.467529,1.128418
18:04:38,1.424316,-0.479736,0.621826
18:04:38,2.408447,-0.397949,-1.887695
18:04:38,4.117432,-1.4375,-2.470215
18:04:38,3.541016,-1.286133,-3.274414
18:04:38,5.665771,5.40332,-2.684082
18:04:38,5.326904,7.929443,-3.019287
18:04:38,3.927734,4.602539,-0.783447
18:04:38,3.607666,2.122803,1.95752
18:04:38,1.377197,0.494873,1.187012
18:04:38,0.873047,0.533936,1.22168
18:04:38,0.78125,0.955322,0.962646
18:04:38,0.615234,0.903076,0.738525
18:04:38,0.929443,0.772461,0.720215
18:04:38,1.145264,0.778076,0.449463
18:04:38,1.165283,0.752686,0.300537
18:04:38,0.987549,0.682861,0.250488
18:04:38,0.768555,0.56958,0.259277
18:04:38,0.718018,0.364014,0.313721
18:04:38,0.813721,0.193115,0.254883
18:04:38,0.906982,0.082031,0.154297
18:04:38,0.804443,-0.005127,-0.055176
18:04:38,0.581055,-0.122314,-0.172607
18:04:38,0.478516,-0.268799,0.016846
18:04:38,0.675781,-0.407471,0.489014
18:04:38,1.027588,-0.477295,0.831055
18:04:38,1.187744,-0.508789,0.69751
18:04:38,1.32373,-0.46167,0.686523
18:04:38,1.483643,-0.230469,0.844971
18:04:38,1.963867,0.209717,0.976074
18:04:38,2.18457,0.905762,0.451904
18:04:38,2.710693,2.231934,-0.433105
18:04:38,3.071533,3.145264,-1.401855
18:04:38,2.817871,2.307129,-1.475586
18:04:38,2.327148,0.797363,-1.107178
18:04:38,2.738281,-0.477295,-1.025146
18:04:38,3.25293,-1.365723,-2.195801
18:04:38,3.011719,-1.493896,-3.273438
18:04:38,2.114502,-1.133301,-2.580566
18:04:38,0.95752,-0.508545,-1.924805
18:04:38,0.433838,0.092529,-2.185791
18:04:38,0.537354,0.370117,-2.459717
18:04:38,1.224609,0.726807,-2.764648
18:04:38,1.99707,0.560547,-3.064697
18:04:38,2.174316,-0.17334,-2.927734
18:04:38,1.685303,-0.365479,-1.994873
18:04:38,1.043701,0.244141,-0.878174
18:04:38,0.700439,0.952637,-0.601563
18:04:38,2.059326,1.010986,2.792969
18:04:38,3.530273,1.638672,3.455566
18:04:38,0.06665,1.173096,-0.726074
18:04:38,0.047852,0.437744,-1.621582
18:04:38,1.821533,-0.626953,0.819336
18:04:38,1.013916,-1.608643,-0.454834
18:04:38,5.496094,-4.162598,1.163086
18:04:38,3.11377,-2.158936,-1.414551
18:04:38,2.036865,-0.852539,-0.395264
18:04:38,1.300049,-0.27832,0.210205
18:04:38,0.911865,0.487793,0.008789
18:04:38,1.255615,1.719727,-0.026855
18:04:38,0.520264,2.025879,-0.257568
18:04:38,0.001465,1.649658,0.358398
18:04:38,-0.045654,1.02002,0.966797
18:04:38,0.006836,0.440674,0.888916
18:04:38,0.394287,0.102295,0.812744
18:04:38,0.742432,-0.074463,0.647949
18:04:38,0.953125,-0.13501,0.316406
18:04:38,1.250732,-0.198975,0.240479
18:04:38,1.365723,-0.330322,0.334473
18:04:38,1.160889,-0.389893,0.425049
18:04:38,0.904785,-0.273193,0.537109
18:04:38,0.726318,-0.063232,0.581055
18:04:38,0.625,0.132813,0.600586
18:04:38,0.628174,0.310547,0.585938
18:04:38,0.690918,0.467285,0.526123
18:04:38,0.770996,0.571045,0.454834
18:04:38,0.839844,0.589111,0.431396
18:04:38,0.862061,0.474365,0.426514
18:04:38,0.856201,0.27417,0.487061
18:04:38,0.8125,0.101563,0.489014
18:04:38,0.859619,0.016113,0.655518
18:04:38,0.754395,-0.001221,0.597656
18:04:38,0.749268,0.038086,0.568359
18:04:38,0.74585,0.111328,0.505127
18:04:38,0.791748,0.173096,0.515381
18:04:38,0.783203,0.234619,0.486572
18:04:38,0.792969,0.291016,0.507813
18:04:38,0.795166,0.289307,0.497314
18:04:38,0.823975,0.27124,0.616455
18:04:38,0.743164,0.251465,0.654297
18:04:39,0.678711,0.260986,0.709229
18:04:39,0.651855,0.266357,0.736328
18:04:39,0.623779,0.229736,0.705566
18:04:39,0.633789,0.124756,0.658203
18:04:39,0.679932,0.01123,0.626709
18:04:39,0.735107,-0.080566,0.666748
18:04:39,0.720947,-0.1604,0.723633
18:04:39,0.554688,-0.210938,0.71875
18:04:39,0.341797,-0.257324,0.862549
18:04:39,0.155762,-0.316162,1.034912
18:04:39,0.068115,-0.204346,0.780273
18:04:39,0.086182,0.008057,0.631348
18:04:39,-0.352295,0.040039,0.274658
18:04:39,0.563477,0.1604,-0.867188
18:04:39,3.817383,-0.657471,-1.509766
18:04:39,2.209961,-1.008301,-4.908936
18:04:39,6.999023,-0.342529,-3.030273
18:04:39,4.393555,6.482178,-3.29541
18:04:39,4.330322,7.099121,-1.924072
18:04:39,3.566895,4.673096,0.237793
18:04:39,3.224121,2.836182,1.11792
18:04:39,1.758301,1.114502,0.489258
18:04:39,1.516113,0.325928,0.943115
18:04:39,1.179443,0.064697,0.641357
18:04:39,1.058594,-0.08252,0.447021
18:04:39,1.109619,-0.184082,0.457764
18:04:39,1.049316,-0.126221,0.400391
18:04:39,0.980957,0.262939,0.311523
18:04:39,0.908203,0.914795,0.02124
18:04:39,0.719238,1.347412,-0.234375
18:04:39,0.44043,1.234375,-0.164063
18:04:39,0.300049,0.726807,-0.018555
18:04:39,0.322266,0.205566,0.064697
18:04:39,0.39502,-0.144287,0.107178
18:04:39,0.453125,-0.357666,0.134521
18:04:39,0.611816,-0.485352,0.357178
18:04:39,0.919434,-0.541504,0.679932
18:04:39,1.187256,-0.519531,0.727783
18:04:39,1.388672,-0.438721,0.615234
18:04:39,1.510742,-0.310547,0.638428
18:04:39,1.614014,-0.020508,0.776611
18:04:39,2.018066,0.679932,0.770996
18:04:39,2.431885,1.741699,0.02002
18:04:39,2.522949,2.326904,-0.974854
18:04:39,2.82959,1.931641,-0.958496
18:04:39,2.772705,0.84668,-0.823242
18:04:39,2.835205,0.006348,-1.167969
18:04:39,3.553223,-0.916504,-1.883057
18:04:39,3.001709,-1.187256,-3.279541
18:04:39,2.145996,-0.986572,-3.098389
18:04:39,1.101563,-0.257324,-2.757324
18:04:39,0.487793,-0.153809,-2.716553
18:04:39,0.970703,-0.140869,-2.838867
18:04:39,1.728516,-0.281738,-3.244385
18:04:39,1.968262,-0.255859,-3.549316
18:04:39,1.721924,-0.155273,-2.967773
18:04:39,1.504395,0.046387,-1.982178
18:04:39,1.458984,0.362061,-1.120361
18:04:39,1.253174,0.777588,-0.80127
18:04:39,0.43457,0.423096,1.362305
18:04:39,3.176025,-0.544434,5.20459
18:04:39,1.884033,-0.402588,2.446533
18:04:39,-1.400879,0.0271,-2.969238
18:04:39,4.865479,0.364258,0.557861
18:04:39,6.04541,1.284912,-0.329102
18:04:39,2.114014,1.644287,-4.350098
18:04:39,3.290283,0.743164,-0.349365
18:04:39,0.735596,-0.203125,0.315186
18:04:39,0.538574,-0.202393,0.871094
18:04:39,0.196045,-0.140137,0.639404
18:04:39,-0.014404,-0.110596,0.609863
18:04:39,0.051758,-0.112305,1.070801
18:04:39,-0.06665,0.001465,1.084229
18:04:39,-0.058838,0.137939,0.931641
18:04:39,0.377441,0.233887,0.844971
18:04:39,0.490723,0.287842,0.619385
18:04:39,0.683838,0.333008,0.521484
18:04:39,0.828369,0.421875,0.359131
18:04:39,1.019775,0.423828,0.359619
18:04:39,1.177734,0.366211,0.351074
18:04:39,1.194092,0.319092,0.240234
18:04:39,1.154053,0.284668,0.275391
18:04:39,0.977051,0.276611,0.37793
18:04:39,0.780029,0.299805,0.474121
18:04:39,0.649414,0.344971,0.561279
18:04:39,0.575928,0.377686,0.602539
18:04:39,0.602051,0.422607,0.560547
18:04:39,0.69873,0.451172,0.48291
18:04:39,0.8396,0.44751,0.481934
18:04:39,0.882568,0.480469,0.442383
18:04:39,0.85083,0.509277,0.440918
18:04:39,0.789795,0.493652,0.462158
18:04:39,0.718994,0.434326,0.512207
18:04:39,0.684326,0.356934,0.585693
18:04:39,0.698242,0.309082,0.567139
18:04:39,0.762207,0.244141,0.531006
18:04:39,0.822998,0.151855,0.588867
18:04:39,0.812256,0.114502,0.690918
18:04:39,0.726318,0.128418,0.706299
18:04:40,0.657959,0.147217,0.764648
18:04:40,0.57251,0.157715,0.758789
18:04:40,0.536133,0.128174,0.70752
18:04:40,0.51001,0.038574,0.68335
18:04:40,0.5,-0.083984,0.692139
18:04:40,0.490234,-0.183594,0.737793
18:04:40,0.350586,-0.257324,0.754639
18:04:40,0.248535,-0.375488,0.859619
18:04:40,-0.019775,-0.407471,0.841064
18:04:40,-0.119873,-0.334961,0.95752
18:04:40,-0.280273,-0.296631,0.857178
18:04:40,1.283936,-0.202148,-0.041992
18:04:40,3.721924,-1.246582,-1.043457
18:04:40,5.032227,-2.59082,-4.158936
18:04:40,3.534424,-0.469238,-5.999023
18:04:40,6.819824,6.36377,0.107666
18:04:40,5.485596,7.999756,-1.462891
18:04:40,3.729492,6.256592,-1.053955
18:04:40,2.389893,2.684082,1.281738
18:04:40,1.005615,0.80249,1.381836
18:04:40,0.72168,0.280029,1.217529
18:04:40,0.825928,0.028809,1.032715
18:04:40,1.01001,-0.147217,0.73999
18:04:40,1.290283,-0.12793,0.544678
18:04:40,1.511475,0.283447,0.310059
18:04:40,1.446045,0.957764,-0.112061
18:04:40,1.07666,1.301758,-0.437012
18:04:40,0.620117,1.005859,-0.307861
18:04:40,0.401367,0.45459,-0.004639
18:04:40,0.343994,0.036133,0.020996
18:04:40,0.2771,-0.207275,-0.025635
18:04:40,0.266846,-0.317139,0.002197
18:04:40,0.392334,-0.402344,0.237061
18:04:40,0.766113,-0.388184,0.719971
18:04:40,1.19043,-0.351563,0.967773
18:04:40,1.266357,-0.254395,0.685059
18:04:40,1.612549,-0.043945,0.891602
18:04:40,2.09375,0.409668,0.966553
18:04:40,2.623047,1.321289,0.525879
18:04:40,2.901855,2.312012,-0.637451
18:04:40,3.112305,2.445068,-1.307129
18:04:40,2.975098,1.417725,-1.053467
18:04:40,2.497803,0.348145,-1.149902
18:04:40,3.046387,-0.816162,-1.333252
18:04:40,3.15625,-1.334717,-2.531006
18:04:40,2.499512,-1.235107,-2.959473
18:04:40,1.554688,-0.471924,-2.681885
18:04:40,0.862061,0.220215,-2.761475
18:04:40,0.850342,0.574707,-3.046875
18:04:40,1.66748,0.555664,-3.242432
18:04:40,2.042236,0.193115,-3.4375
18:04:40,1.640137,-0.060303,-3.146973
18:04:40,1.268555,-0.180664,-2.515625
18:04:40,1.413086,0.032715,-1.897949
18:04:40,1.650391,0.610596,-0.905762
18:04:40,0.893311,0.899658,1.034424
18:04:40,1.521729,0.761475,3.360107
18:04:40,2.684326,0.296631,2.973633
18:04:40,-0.203125,0.013916,-0.461426
18:04:40,1.193359,-0.446045,-1.559814
18:04:40,5.174072,-1.215088,1.350098
18:04:40,4.229492,-0.375977,-2.791992
18:04:40,3.490479,1.820068,-2.740723
18:04:40,2.329346,1.49585,-1.121826
18:04:40,0.869141,0.419189,0.115234
18:04:40,0.621094,0.217041,0.940186
18:04:40,0.098633,0.124756,0.698242
18:04:40,-0.076172,0.213135,0.56958
18:04:40,0.031494,0.199219,1.07251
18:04:40,-0.127441,0.270508,0.95166
18:04:40,0.046631,0.279297,0.967041
18:04:40,0.323242,0.298096,0.818115
18:04:40,0.599365,0.363525,0.605469
18:04:40,0.777344,0.373535,0.440186
18:04:40,0.918945,0.337158,0.366699
18:04:40,1.110596,0.26416,0.354736
18:04:40,1.236572,0.207275,0.293945
18:04:40,1.237061,0.154785,0.293945
18:04:40,1.0625,0.078857,0.407227
18:04:40,0.817627,0.056885,0.526367
18:04:40,0.660645,0.137695,0.597168
18:04:40,0.581787,0.255127,0.622559
18:04:40,0.587891,0.365723,0.591064
18:04:40,0.677002,0.464844,0.510498
18:04:40,0.775879,0.526123,0.444824
18:04:40,0.864746,0.523193,0.435547
18:04:40,0.891846,0.472168,0.45874
18:04:40,0.816162,0.4375,0.508789
18:04:40,0.729248,0.361816,0.606934
18:04:40,0.687744,0.289795,0.628906
18:04:40,0.657715,0.306152,0.551025
18:04:40,0.707764,0.238037,0.643311
18:04:40,0.726563,0.180908,0.591553
18:04:40,0.815918,0.155518,0.61084
18:04:40,0.812012,0.171875,0.641113
18:04:40,0.73877,0.201172,0.715576
18:04:40,0.664307,0.231445,0.747314
18:04:40,0.604004,0.253662,0.766846
18:04:40,0.540039,0.209961,0.738525
18:04:40,0.520264,0.081543,0.739014
18:04:40,0.48999,-0.028809,0.686768
18:04:41,0.498047,-0.147461,0.740723
18:04:41,0.424805,-0.260254,0.767822
18:04:41,0.306885,-0.366699,0.943604
18:04:41,0.102295,-0.414795,0.858887
18:04:41,-0.21875,-0.398682,0.852783
18:04:41,-0.675049,-0.26709,0.883301
18:04:41,0.609375,-0.057373,0.241943
18:04:41,3.013916,-0.792725,-0.857178
18:04:41,4.649902,-2.31543,-3.615723
18:04:41,4.526367,-1.321777,-5.994141
18:04:41,5.75,4.695313,-2.027832
18:04:41,5.506592,7.999756,0.337891
18:04:41,2.462891,6.692383,-1.564209
18:04:41,2.86792,3.581543,1.250732
18:04:41,1.003662,1.218994,0.936768
18:04:41,0.842529,0.579834,1.018311
18:04:41,0.888672,0.277588,0.921875
18:04:41,0.943604,0.052002,0.672852
18:04:41,1.084717,-0.0271,0.49707
18:04:41,1.203369,0.0625,0.395508
18:04:41,1.039307,0.381348,0.225586
18:04:41,0.843994,0.844238,0.051025
18:04:41,0.654053,1.157715,-0.047363
18:04:41,0.476318,1.09082,-0.048096
18:04:41,0.380859,0.748047,-0.001221
18:04:41,0.356201,0.369629,-0.032715
18:04:41,0.391846,0.077881,0.01001
18:04:41,0.452393,-0.094482,0.120361
18:04:41,0.602051,-0.200928,0.246338
18:04:41,0.773193,-0.255127,0.440674
18:04:41,0.921875,-0.223877,0.599609
18:04:41,1.0896,-0.128662,0.632324
18:04:41,1.319092,0.003418,0.690918
18:04:41,1.842529,0.379883,0.863525
18:04:41,2.413086,1.376465,0.385498
18:04:41,2.684082,2.516846,-0.904297
18:04:41,2.873047,2.543457,-1.406982
18:04:41,2.836426,1.546631,-1.095459
18:04:41,2.506104,0.664307,-1.235107
18:04:41,2.91626,-0.231445,-1.547607
18:04:41,3.55542,-1.065674,-2.493652
18:04:41,2.923828,-1.287598,-3.4729
18:04:41,1.828613,-1.048828,-2.810791
18:04:41,1.020752,-0.192139,-2.589111
18:04:41,0.630127,0.290771,-2.946533
18:04:41,0.969727,0.381592,-3.094971
18:04:41,1.624023,0.251465,-3.23877
18:04:41,1.870361,-0.241699,-3.047607
18:04:41,1.820068,-0.507324,-2.474121
18:04:41,1.616211,-0.275391,-1.841553
18:04:41,1.737305,0.510498,-0.714355
18:04:41,2.022949,0.75,1.390625
18:04:41,0.291016,0.502686,1.89502
18:04:41,1.764648,0.11377,3.008789
18:04:41,0.398926,0.152832,1.44165
18:04:41,-0.104736,-0.066162,-0.6604
18:04:41,4.805176,1.33667,1.571289
18:04:41,2.590088,2.192627,-3.405518
18:04:41,4.566895,0.840576,-2.716797
18:04:41,3.119629,-0.314941,-1.081787
18:04:41,1.259277,-0.448975,0.227295
18:04:41,0.750244,-0.347412,0.921875
18:04:41,0.227295,-0.177002,0.520508
18:04:41,-0.032959,-0.090088,0.493164
18:04:41,-0.096191,-0.039307,1.046143
18:04:41,-0.430664,0.153564,1.3396
18:04:41,-0.295166,0.466064,1.11084
18:04:41,0.26416,0.665771,0.684082
18:04:41,0.485107,0.663086,0.461182
18:04:41,0.706787,0.592529,0.492676
18:04:41,0.955566,0.459473,0.502686
18:04:41,1.079346,0.288574,0.364014
18:04:41,1.223633,0.100586,0.310547
18:04:41,1.2771,-0.044678,0.312256
18:04:41,1.173828,-0.085449,0.370361
18:04:41,0.938721,-0.027588,0.501953
18:04:41,0.737061,0.093506,0.596191
18:04:41,0.602295,0.247803,0.629395
18:04:41,0.544678,0.394775,0.621582
18:04:41,0.599609,0.524414,0.574463
18:04:41,0.703857,0.609863,0.530518
18:04:41,0.762451,0.640869,0.471191
18:04:41,0.810547,0.604492,0.435547
18:04:41,0.797363,0.47998,0.484863
18:04:41,0.814697,0.307861,0.602051
18:04:41,0.775391,0.234131,0.55249
18:04:41,0.753418,0.164307,0.594727
18:04:41,0.73291,0.075439,0.607666
18:04:41,0.758545,0.065186,0.623047
18:04:41,0.763672,0.091553,0.683594
18:04:41,0.722412,0.141357,0.71582
18:04:41,0.690674,0.223877,0.729736
18:04:41,0.626953,0.273438,0.742432
18:04:41,0.569824,0.253906,0.716797
18:04:41,0.54834,0.186523,0.64917
18:04:41,0.554199,0.046143,0.603516
18:04:41,0.578613,-0.11792,0.672852
18:04:41,0.477051,-0.251953,0.733887
18:04:41,0.32251,-0.402588,0.844971
18:04:41,0.136475,-0.495605,0.964355
