Time,Accel-X (g), Accel-Y (g), Accel-Z (g)
17:25:00,0.34375,-0.520264,-0.186035
17:25:00,0.33374,-1.877197,1.982422
17:25:00,3.197266,-2.864014,5.609375
17:25:00,2.486084,-1.730469,1.982422
17:25:00,1.095215,-1.044922,-2.369629
17:25:00,4.589844,-1.517334,-1.745361
17:25:00,4.456543,-1.036377,-0.810547
17:25:00,1.167725,-0.430176,-0.146973
17:25:00,0.922363,-0.462646,0.80249
17:25:00,0.396729,-0.246338,0.632568
17:25:00,-0.064941,-0.065918,0.706055
17:25:00,-0.359619,0.02832,1.097168
17:25:00,-0.321777,0.116455,1.185547
17:25:00,-0.004395,0.296143,0.831787
17:25:00,0.532471,0.481689,0.549805
17:25:00,0.919434,0.663574,0.570068
17:25:00,0.976807,0.699707,0.334229
17:25:00,0.992432,0.567383,0.427979
17:25:00,0.691406,0.300537,0.576172
17:25:00,0.476807,0.10791,0.664307
17:25:00,0.474609,-0.044189,0.759766
17:25:00,0.580078,-0.155762,0.756836
17:25:00,0.608887,-0.220459,0.712891
17:25:00,0.607666,-0.279541,0.67041
17:25:00,0.623535,-0.341797,0.707275
17:25:00,0.614014,-0.390625,0.729736
17:25:00,0.599121,-0.437744,0.680908
17:25:00,0.640137,-0.477539,0.62915
17:25:00,0.718018,-0.486816,0.567383
17:25:00,0.790771,-0.486572,0.524658
17:25:00,0.843506,-0.484131,0.562988
17:25:00,0.828125,-0.447754,0.562256
17:25:00,0.765381,-0.353027,0.503662
17:25:00,0.754639,-0.254639,0.517822
17:25:00,0.757324,-0.18042,0.546631
17:25:00,0.726318,-0.110107,0.570313
17:25:00,0.625488,-0.048584,0.61499
17:25:00,0.729492,-0.001709,0.6875
17:25:00,1.239258,0.045166,0.64917
17:25:00,1.13501,0.09668,0.36377
17:25:00,0.384033,0.057617,0.519043
17:25:00,0.185059,0.061768,0.772949
17:25:00,0.160156,0.094971,1.095215
17:25:00,0.388916,0.24585,1.422607
17:25:00,0.540039,0.409912,1.087402
17:25:00,0.959229,0.095947,1.782227
17:25:00,0.391357,0.163574,1.12793
17:25:00,0.979248,0.507568,1.077393
17:25:00,1.608154,0.64917,1.156738
17:25:00,2.1875,0.652344,1.423828
17:25:00,3.534912,0.934814,0.995605
17:25:00,4.180664,0.716797,-1.950684
17:25:00,7.542969,0.352783,1.847168
17:25:00,7.697266,0.206543,1.129395
17:25:00,3.385986,-0.051025,1.107178
17:25:00,1.176025,-0.137695,1.531738
17:25:00,0.702881,0.046631,1.325439
17:25:00,0.195801,0.299561,0.787842
17:25:00,-0.120117,0.484619,0.520508
17:25:00,-0.207031,0.682861,0.502686
17:25:00,-0.234375,0.873291,0.392822
17:25:00,-0.296631,1.013428,0.384277
17:25:00,-0.318604,1.115234,0.431641
17:25:00,-0.086182,1.08374,0.479492
17:25:00,0.299561,0.899414,0.664307
17:25:00,0.581787,0.707275,0.780762
17:25:00,0.788086,0.598877,0.766602
17:25:00,1.052979,0.533936,0.777344
17:25:00,1.418701,0.488525,0.755371
17:25:00,1.814453,0.480469,0.622314
17:25:00,2.30542,0.429688,0.577881
17:25:00,2.737061,0.265869,0.5354
17:25:00,3.049805,0.035156,0.14917
17:25:00,2.921143,-0.148926,-0.260254
17:25:00,3.216309,-0.252441,-0.22583
17:25:00,3.236572,-0.185303,-0.758789
17:25:00,3.412842,-0.055664,-1.061035
17:25:00,3.608643,0.156738,-1.418945
17:25:00,3.456543,0.463623,-2.175537
17:25:00,3.281738,0.762207,-2.770752
17:25:00,2.959961,0.984131,-3.627441
17:25:00,2.255859,0.867188,-3.942139
17:25:00,1.679199,0.666016,-3.647461
17:25:00,1.545654,0.353027,-3.325928
17:25:00,2.097168,0.033691,-2.344482
17:25:00,1.618164,0.345215,-3.084717
17:25:00,-0.098389,0.627686,-3.810791
17:25:00,1.075928,0.172119,0.689941
17:25:00,1.681641,-1.145264,2.354248
17:25:00,0.599365,-1.919434,0.10376
17:25:00,4.854736,-4.822754,2.573486
17:25:00,5.127441,-4.72168,0.848633
17:25:00,1.670654,-1.386475,-3.244629
17:25:00,3.221436,-1.46582,-0.243896
17:25:00,2.023682,-0.875732,0.796875
17:25:00,0.921387,-0.286621,0.222168
17:25:00,0.802246,-0.018311,0.220459
17:25:00,0.722168,0.150635,0.385254
17:25:00,0.580078,0.25,0.486084
17:25:00,0.452881,0.344482,0.59668
17:25:00,0.369629,0.488281,0.705566
17:25:01,0.304688,0.631836,0.716309
17:25:01,0.31958,0.713867,0.669189
17:25:01,0.430664,0.763916,0.668213
17:25:01,0.562988,0.655273,0.577637
17:25:01,0.623047,0.451416,0.560791
17:25:01,0.625977,0.227783,0.618896
17:25:01,0.612061,0.05542,0.648438
17:25:01,0.595459,-0.057861,0.708984
17:25:01,0.593262,-0.139893,0.738525
17:25:01,0.581543,-0.191895,0.705566
17:25:01,0.6604,-0.224365,0.644287
17:25:01,0.706055,-0.249512,0.578369
17:25:01,0.763916,-0.306152,0.629639
17:25:01,0.78833,-0.348633,0.603516
17:25:01,0.762207,-0.374512,0.52124
17:25:01,0.796143,-0.416748,0.46875
17:25:01,0.850098,-0.461914,0.478271
17:25:01,0.885254,-0.478516,0.577637
17:25:01,0.828125,-0.409668,0.593262
17:25:01,0.734863,-0.298828,0.532959
17:25:01,0.736328,-0.200928,0.531738
17:25:01,0.749512,-0.093262,0.477783
17:25:01,0.759277,-0.018066,0.401855
17:25:01,0.745605,0.014648,0.440674
17:25:01,1.002441,0.004883,0.548584
17:25:01,1.530273,-0.032959,0.508789
17:25:01,1.052734,-0.05542,0.281006
17:25:01,0.610596,-0.143799,0.552002
17:25:01,0.473389,-0.06543,0.729736
17:25:01,0.164551,-0.027344,0.929199
17:25:01,0.096436,-0.031006,1.143555
17:25:01,0.261719,-0.032471,1.201416
17:25:01,0.525635,-0.077637,1.077881
17:25:01,1.250244,-0.101074,1.243896
17:25:01,0.505859,0.080322,0.799316
17:25:01,0.786133,0.53833,1.268066
17:25:01,0.911377,0.351318,0.827148
17:25:01,2.527588,0.359375,1.095947
17:25:01,1.44458,0.122314,-0.246338
17:25:01,5.26001,1.031006,-0.071289
17:25:01,7.895508,1.378906,-0.793945
17:25:01,7.999756,1.176514,0.536621
17:25:01,5.027832,0.457764,1.055908
17:25:01,1.501709,0.020752,1.025635
17:25:01,0.797852,0.093018,1.333496
17:25:01,0.38501,0.276123,1.121582
17:25:01,-0.049805,0.475098,0.549316
17:25:01,-0.109863,0.903809,0.294189
17:25:01,0.172852,1.622559,0.278809
17:25:01,0.05957,1.816406,-0.174561
17:25:01,-0.412598,1.301514,-0.171875
17:25:01,-0.324951,0.848145,0.599609
17:25:01,-0.118652,0.489502,0.674316
17:25:01,0.065186,0.307861,0.473389
17:25:01,0.281738,0.274414,0.599365
17:25:01,0.607178,0.2229,0.853027
17:25:01,1.021729,0.216309,0.967529
17:25:01,1.432373,0.25293,0.722168
17:25:01,2.021484,0.390869,0.368164
17:25:01,2.644775,0.389648,0.109619
17:25:01,3.179443,0.046143,0.083496
17:25:01,2.965332,-0.366211,-0.34082
17:25:01,2.24585,-0.578613,-0.134521
17:25:01,2.696045,-0.730225,0.228516
17:25:01,2.784424,-0.479736,-0.60083
17:25:01,3.324707,-0.26001,-0.880859
17:25:01,3.65918,0.090332,-1.407227
17:25:01,3.559326,0.476074,-2.117432
17:25:01,3.135254,0.755615,-2.692627
17:25:01,2.66748,0.985107,-3.344482
17:25:01,2.089355,1.021484,-3.72583
17:25:01,1.535156,0.816406,-3.459717
17:25:01,1.61792,0.670654,-3.157715
17:25:01,2.233154,0.351807,-2.57959
17:25:01,1.907959,0.354248,-3.131104
17:25:01,0.19873,0.531006,-3.828125
17:25:01,0.503906,0.116943,-0.396484
17:25:01,1.824463,-0.843994,2.860596
17:25:01,0.369873,-1.420166,0.503418
17:25:01,2.720947,-3.524902,2.320068
17:25:01,6.687744,-5.252441,4.942139
17:25:01,2.187012,-1.853027,-3.213135
17:25:01,1.475342,-0.916748,-3.241211
17:25:01,4.160889,-1.266113,1.493164
17:25:01,1.033447,-0.374756,0.073975
17:25:01,0.493164,-0.085693,-0.20166
17:25:01,0.79541,0.085205,0.622559
17:25:01,0.514648,0.233154,0.567627
17:25:01,0.143555,0.277832,0.63501
17:25:01,-0.04834,0.489502,0.78418
17:25:01,0.054688,0.648926,0.84668
17:25:01,0.295898,0.829102,0.642578
17:25:01,0.647461,0.943115,0.52832
17:25:01,0.809082,0.81958,0.451904
17:25:01,0.754639,0.517822,0.506836
17:25:01,0.697998,0.226563,0.606934
17:25:01,0.665527,0.005127,0.62793
17:25:01,0.629395,-0.137939,0.708008
17:25:01,0.629395,-0.225098,0.762451
17:25:01,0.657959,-0.294922,0.703613
17:25:02,0.691895,-0.318359,0.640625
17:25:02,0.717529,-0.364502,0.65625
17:25:02,0.71582,-0.406006,0.675049
17:25:02,0.686768,-0.409912,0.673828
17:25:02,0.65625,-0.400391,0.667969
17:25:02,0.668457,-0.383057,0.648682
17:25:02,0.687012,-0.369385,0.590576
17:25:02,0.701172,-0.346191,0.526123
17:25:02,0.756592,-0.319092,0.499756
17:25:02,0.792969,-0.30835,0.480713
17:25:02,0.799072,-0.283936,0.480713
17:25:02,0.796143,-0.233154,0.458984
17:25:02,0.787598,-0.190186,0.464844
17:25:02,0.877441,-0.168701,0.560547
17:25:02,1.19043,-0.167969,0.584473
17:25:02,1.080078,-0.132324,0.375977
17:25:02,0.824951,-0.092041,0.472656
17:25:02,0.61792,-0.108643,0.688477
17:25:02,0.65332,-0.077393,0.876221
17:25:02,0.22168,-0.000732,0.870117
17:25:02,-0.013672,-0.048584,1.056641
17:25:02,0.092041,-0.006104,0.968994
17:25:02,0.817627,0.531982,0.873291
17:25:02,1.074951,0.550049,1.219238
17:25:02,0.439697,0.302979,1.264893
17:25:02,0.750977,0.581787,1.384033
17:25:02,1.28125,0.60376,1.281006
17:25:02,1.973633,0.523926,1.233154
17:25:02,1.555664,0.260986,1.196289
17:25:02,2.571533,0.536133,-1.302002
17:25:02,6.634033,1.82666,0.290039
17:25:02,7.999756,1.101807,-0.202393
17:25:02,5.545654,-0.095947,-0.14502
17:25:02,1.872314,-0.048096,1.969482
17:25:02,0.999268,0.047119,1.245117
17:25:02,0.518311,0.308838,0.693848
17:25:02,0.170654,0.420898,0.533691
17:25:02,-0.11792,0.411865,0.605469
17:25:02,-0.268311,0.597168,0.351807
17:25:02,-0.401855,0.860596,0.113037
17:25:02,-0.677979,1.018799,0.281494
17:25:02,-0.753906,1.038574,0.560791
17:25:02,-0.290039,1.087158,0.467285
17:25:02,0.337891,1.022461,0.818848
17:25:02,0.914551,1.105713,1.066162
17:25:02,1.034912,0.966797,0.63501
17:25:02,1.188477,0.817383,0.499268
17:25:02,1.530518,0.656494,0.640381
17:25:02,1.809814,0.506836,0.594482
17:25:02,2.451416,0.458496,0.648926
17:25:02,3.192383,0.451416,0.304443
17:25:02,4.088623,0.01123,-0.521484
17:25:02,3.029053,-0.259521,-0.935791
17:25:02,2.727051,-0.411133,-0.398682
17:25:02,3.111572,-0.270996,-0.602051
17:25:02,3.35791,0.129883,-1.376953
17:25:02,3.11499,0.681152,-1.937744
17:25:02,2.817383,1.192383,-2.161377
17:25:02,2.677979,1.515137,-2.700439
17:25:02,2.56958,1.486816,-3.588867
17:25:02,2.213379,1.03418,-3.811768
17:25:02,1.917236,0.435303,-3.243652
17:25:02,2.368896,0.033691,-2.900635
17:25:02,2.648682,-0.164063,-2.413086
17:25:02,0.955811,0.056152,-2.294922
17:25:02,-0.373535,0.346924,-1.561035
17:25:02,0.870117,-0.070068,1.469482
17:25:02,0.764893,-1.220215,2.287598
17:25:02,-0.710938,-2.231445,0.589111
17:25:02,2.038574,-2.523926,2.501221
17:25:02,6.181152,-3.685303,5.123535
17:25:02,2.285889,-1.060303,-2.906738
17:25:02,3.284424,-0.429932,-4.30835
17:25:02,5.380371,-0.529785,0.830566
17:25:02,1.279053,-0.168457,-0.721191
17:25:02,0.679443,-0.200684,0.180176
17:25:02,0.613037,-0.095703,0.822998
17:25:02,0.26416,0.053955,0.768066
17:25:02,-0.09082,0.099365,0.789795
17:25:02,-0.234375,0.197266,0.848389
17:25:02,-0.354004,0.287109,0.9104
17:25:02,0.010742,0.518311,0.843994
17:25:02,0.428223,0.695313,0.748047
17:25:02,0.648682,0.759033,0.552979
17:25:02,0.764404,0.65332,0.522217
17:25:02,0.799316,0.456787,0.56543
17:25:02,0.737793,0.258301,0.589111
17:25:02,0.67627,0.093262,0.653076
17:25:02,0.619629,0.004883,0.718018
17:25:02,0.567627,-0.054199,0.758545
17:25:02,0.5625,-0.0896,0.77124
17:25:02,0.585693,-0.110352,0.7146
17:25:02,0.63916,-0.127441,0.647217
17:25:02,0.72998,-0.128174,0.643555
17:25:02,0.772949,-0.150146,0.610596
17:25:02,0.783447,-0.190674,0.557129
17:25:02,0.812012,-0.229248,0.571777
17:25:02,0.77002,-0.240479,0.575684
17:25:02,0.739746,-0.254395,0.636963
17:25:02,0.708252,-0.240234,0.641602
17:25:03,0.686768,-0.170166,0.646484
17:25:03,0.702881,-0.091309,0.669678
17:25:03,0.684814,-0.003418,0.615967
17:25:03,0.671143,0.05127,0.560059
17:25:03,0.671143,0.078857,0.579346
17:25:03,0.64209,0.093262,0.639893
17:25:03,0.583984,0.094482,0.612549
17:25:03,0.423828,0.089355,0.554688
17:25:03,1.763184,-0.045654,0.956299
17:25:03,1.395996,-0.080811,0.380859
17:25:03,0.236816,0.035645,0.109375
17:25:03,0.278809,0.18457,0.861816
17:25:03,0.375977,0.286133,1.386963
17:25:03,0.031006,-0.421875,2.3479
17:25:03,0.541748,-0.214111,1.843018
17:25:03,0.900146,0.495117,0.782227
17:25:03,1.67749,0.658936,0.731445
17:25:03,2.145508,0.450928,0.670654
17:25:03,2.016357,0.158691,1.303223
17:25:03,3.187012,0.276611,-0.249756
17:25:03,6.758057,2.3396,-0.087158
17:25:03,7.587158,2.329346,0.948242
17:25:03,4.843018,0.195313,-0.57373
17:25:03,3.531982,0.586426,0.63208
17:25:03,2.020752,0.418701,0.895508
17:25:03,0.927979,0.355957,0.490479
17:25:03,0.598145,0.509521,0.321533
17:25:03,0.309814,0.721191,0.121582
17:25:03,-0.052002,0.846924,-0.034668
17:25:03,-0.317383,0.80249,-0.071777
17:25:03,-0.462158,0.79834,-0.019043
17:25:03,-0.734375,0.990234,0.264893
17:25:03,-1.005859,1.079834,0.565186
17:25:03,-0.457031,1.014648,0.32959
17:25:03,0.182861,0.979004,0.71582
17:25:03,0.950195,1.22583,1.070557
17:25:03,1.078857,1.135254,0.619873
17:25:03,1.185059,0.989746,0.439697
17:25:03,1.607422,0.826904,0.733887
17:25:03,1.942383,0.527832,0.990967
17:25:03,2.068359,0.358154,0.949219
17:25:03,4.230957,0.755127,0.318359
17:25:03,4.881348,0.939697,-1.98999
17:25:03,3.204834,0.594482,-1.928711
17:25:03,2.06665,0.296631,-0.780029
17:25:03,2.071045,0.609619,-1.123291
17:25:03,2.775391,1.146973,-1.879639
17:25:03,3.175537,1.278076,-2.338623
17:25:03,3.07373,1.12793,-2.724854
17:25:03,2.744385,1.067871,-3.358398
17:25:03,1.902832,0.797363,-3.75708
17:25:03,1.122314,0.252197,-3.414551
17:25:03,1.194336,-0.003662,-3.053955
17:25:03,2.287354,-0.051025,-2.647217
17:25:03,3.025879,-0.201904,-1.941895
17:25:03,1.818359,-0.301025,-0.873291
17:25:03,0.751709,-0.121094,0.799561
17:25:03,0.786621,-0.134277,1.209229
17:25:03,-0.861328,-0.862305,-0.697266
17:25:03,-2.25708,-2.990479,0.598877
17:25:03,-0.600098,-2.111084,0.924561
17:25:03,7.999756,-5.184326,7.898438
17:25:03,2.182373,-1.153076,-1.68042
17:25:03,-0.084473,-0.420166,-5.711182
17:25:03,7.552246,-0.648438,-0.283203
17:25:03,2.476807,-0.010986,-2.021484
17:25:03,2.05957,0.231201,0.125488
17:25:03,1.362793,0.300293,0.326416
17:25:03,0.498047,0.345459,-0.02417
17:25:03,0.166504,0.396729,0.120361
17:25:03,-0.073242,0.404297,0.711182
17:25:03,-0.59375,0.404541,1.389893
17:25:03,-1.213135,0.50708,1.526123
17:25:03,-0.983643,0.745605,0.745361
17:25:03,-0.212402,0.887939,0.42041
17:25:03,0.528076,0.867188,0.935059
17:25:03,0.730957,0.752686,0.776123
17:25:03,0.55957,0.549805,0.296875
17:25:03,0.650146,0.353271,0.450928
17:25:03,0.816406,0.213623,0.650391
17:25:03,0.841553,0.083984,0.545898
17:25:03,0.847656,-0.035645,0.411377
17:25:03,0.87793,-0.158691,0.468994
17:25:03,0.911133,-0.277588,0.59375
17:25:03,0.838623,-0.371826,0.666992
17:25:03,0.746338,-0.453857,0.500244
17:25:03,0.819824,-0.574951,0.545898
17:25:03,0.810791,-0.659912,0.539063
17:25:03,0.792969,-0.725586,0.620605
17:25:03,0.760986,-0.713379,0.65332
17:25:03,0.717041,-0.61792,0.557373
17:25:03,0.702881,-0.455566,0.469238
17:25:03,0.73291,-0.307373,0.497803
17:25:03,0.737549,-0.201172,0.514404
17:25:03,0.696777,-0.109863,0.514404
17:25:03,0.599609,-0.031982,0.518799
17:25:03,0.964844,0.031738,0.638672
17:25:03,1.404053,0.08374,0.455322
17:25:03,0.813965,0.083252,0.192627
17:25:03,0.343018,0.196289,0.311523
17:25:04,0.47998,0.458252,1.008789
17:25:04,0.727295,0.645508,0.905762
17:25:04,0.800293,0.30127,0.808594
17:25:04,0.2146,-0.236572,2.030762
17:25:04,0.075928,0.013184,1.824219
17:25:04,0.925293,0.726318,0.804688
17:25:04,1.380615,0.878174,0.738525
17:25:04,1.720215,0.756104,0.913818
17:25:04,2.405518,0.69458,0.943848
17:25:04,3.615234,0.599854,-0.469482
17:25:04,6.645996,0.916504,-0.264893
17:25:04,7.617188,0.768555,1.757324
17:25:04,4.014648,-0.231201,0.154297
17:25:04,2.617676,-0.075928,1.320801
17:25:04,2.172119,0.339355,1.303467
17:25:04,1.222656,0.531738,0.493164
17:25:04,0.843506,0.673584,0.320557
17:25:04,0.548828,0.813721,0.320801
17:25:04,0.117188,0.863281,0.060303
17:25:04,-0.179932,0.874268,-0.018311
17:25:04,-0.294189,0.830566,-0.069824
17:25:04,-0.337891,0.731934,0.426514
17:25:04,-0.425537,0.55957,0.786865
17:25:04,-0.336914,0.564209,0.612061
17:25:04,0.014404,0.516846,0.643799
17:25:04,0.443359,0.451416,0.941895
17:25:04,0.920654,0.412842,1.360596
17:25:04,1.310791,0.390869,1.278076
17:25:04,1.621826,0.38916,0.858643
17:25:04,2.16333,0.438965,0.802246
17:25:04,3.181152,0.614746,0.189697
17:25:04,3.818848,0.560303,-0.349365
17:25:04,3.460205,0.150146,-0.394043
17:25:04,2.783691,-0.216309,-0.640869
17:25:04,2.850098,-0.372803,-0.832275
17:25:04,3.317871,-0.236572,-1.141113
17:25:04,3.347412,0.169189,-1.676758
17:25:04,3.07666,0.547119,-2.061035
17:25:04,2.769043,0.836426,-2.755859
17:25:04,2.396973,1.045898,-3.509277
17:25:04,1.843994,1.04541,-3.646729
17:25:04,1.394775,0.931396,-3.323486
17:25:04,1.758545,0.959717,-3.037354
17:25:04,2.544189,0.921387,-2.84668
17:25:04,1.558838,0.577637,-2.440674
17:25:04,-0.344482,0.534912,-2.981689
17:25:04,0.236572,-0.106934,-0.32666
17:25:04,1.422119,-1.036133,2.141602
17:25:04,0.70752,-2.359619,1.411865
17:25:04,3.200928,-3.912598,4.013428
17:25:04,4.773682,-3.515869,2.398926
17:25:04,1.989014,-1.358643,-2.521484
17:25:04,4.253174,-0.633789,-2.325439
17:25:04,4.487305,-0.141357,-0.041016
17:25:04,1.693848,0.034424,-0.255615
17:25:04,0.631592,0.07666,-0.083008
17:25:04,0.603027,0.144287,0.570801
17:25:04,0.412354,0.201904,0.87207
17:25:04,0.005127,0.301025,0.756836
17:25:04,-0.413086,0.430908,0.853271
17:25:04,-0.360352,0.602539,0.988281
17:25:04,0.119141,0.792969,0.782227
17:25:04,0.602783,0.892822,0.533447
17:25:04,0.835693,0.813477,0.476318
17:25:04,0.824707,0.559082,0.512451
17:25:04,0.71875,0.254639,0.579834
17:25:04,0.608643,0.028564,0.656006
17:25:04,0.568115,-0.098877,0.715576
17:25:04,0.606445,-0.175781,0.731445
17:25:04,0.664795,-0.243164,0.701172
17:25:04,0.710938,-0.270752,0.691406
17:25:04,0.706787,-0.271484,0.648926
17:25:04,0.719727,-0.30249,0.661133
17:25:04,0.689697,-0.318359,0.692871
17:25:04,0.621338,-0.34668,0.705566
17:25:04,0.659912,-0.341309,0.695313
17:25:04,0.691406,-0.311279,0.589111
17:25:04,0.765625,-0.3125,0.578125
17:25:04,0.781738,-0.327881,0.626221
17:25:04,0.751221,-0.31543,0.54126
17:25:04,0.759766,-0.286621,0.471436
17:25:04,0.806152,-0.26001,0.49292
17:25:04,0.820801,-0.206543,0.508057
17:25:04,0.772949,-0.131348,0.545166
17:25:04,0.707275,-0.067139,0.620605
17:25:04,0.495605,-0.004883,0.576172
17:25:04,0.809814,0.049561,0.613525
17:25:04,1.375977,0.069336,0.540527
17:25:04,0.92334,0.097168,0.265137
17:25:04,0.097412,0.091064,0.357178
17:25:04,0.511719,0.568604,0.872559
17:25:04,0.828857,0.795898,0.971191
17:25:04,0.587402,0.410645,1.195557
17:25:04,-0.00708,0.098145,2.174072
17:25:04,0.046875,0.439209,1.515137
17:25:04,1.362305,1.148682,0.187012
17:25:04,1.769043,1.268066,0.612793
17:25:04,1.426758,0.670654,0.619385
17:25:04,2.495361,0.626221,0.648438
17:25:04,6.333252,2.452881,-0.231934
17:25:05,7.981201,1.325684,-0.740723
17:25:05,7.461914,-1.112305,0.402832
17:25:05,3.985107,-0.601318,-1.286377
17:25:05,3.364258,0.066406,1.38501
17:25:05,1.562256,0.120361,0.839355
17:25:05,0.893311,0.213135,0.579346
17:25:05,0.691162,0.466064,0.362061
17:25:05,0.263672,0.665039,0.078613
17:25:05,-0.036865,1.037354,-0.037598
17:25:05,-0.343262,1.042725,-0.328613
17:25:05,-0.541504,0.99707,-0.129639
17:25:05,-0.692627,0.943115,0.637695
17:25:05,-0.841064,0.860352,0.584717
17:25:05,-0.426025,0.708496,0.456543
17:25:05,0.424316,0.87793,0.956787
17:25:05,0.931885,1.009766,0.942383
17:25:05,1.057373,0.847656,0.625
17:25:05,1.361328,0.740234,0.776123
17:25:05,1.704834,0.590088,0.899902
17:25:05,1.938965,0.399902,0.862061
17:25:05,2.597168,0.254883,0.998047
17:25:05,2.774658,0.145264,0.308838
17:25:05,3.033691,0.628418,-0.975586
17:25:05,3.786865,1.117188,-1.783447
17:25:05,3.687988,0.621094,-2.219482
17:25:05,3.432617,0.097656,-2.350098
17:25:05,2.929932,0.20166,-2.593018
17:25:05,2.210449,0.628662,-2.775146
17:25:05,1.656738,1.004639,-3.130127
17:25:05,1.227295,1.139648,-3.734619
17:25:05,0.908691,0.942627,-4.076416
17:25:05,1.160156,0.619141,-3.549561
17:25:05,1.479004,0.34668,-3.226563
17:25:05,1.763672,0.330322,-3.233643
17:25:05,1.32373,0.427979,-2.6604
17:25:05,0.063232,0.625,-2.65918
17:25:05,2.397461,0.454102,1.886719
17:25:05,1.222656,-0.320801,1.46582
17:25:05,0.059326,-0.659424,-0.931641
17:25:05,0.010498,-2.681885,4.072998
17:25:05,3.48999,-2.574463,5.933105
17:25:05,1.941895,-1.118896,1.060303
17:25:05,1.05542,-0.791748,-2.323975
17:25:05,4.777344,-1.614014,-0.714111
17:25:05,3.947998,-1.027588,-1.351074
17:25:05,2.213379,-0.220703,-0.670654
17:25:05,1.72583,0.024902,0.441162
17:25:05,0.859375,0.0979,0.088379
17:25:05,0.430176,0.099365,0.063477
17:25:05,0.236572,0.122803,0.669189
17:25:05,-0.303467,0.186035,1.268555
17:25:05,-0.801514,0.312012,1.424805
17:25:05,-0.727051,0.536133,0.960449
17:25:05,-0.192627,0.70459,0.428711
17:25:05,0.35791,0.689697,0.733398
17:25:05,0.708984,0.626465,1.016113
17:25:05,0.592773,0.507813,0.514893
17:25:05,0.662598,0.406738,0.412598
17:25:05,0.900879,0.312012,0.602295
17:25:05,0.898193,0.19043,0.558838
17:25:05,0.829346,0.089355,0.475098
17:25:05,0.887695,0.003174,0.61792
17:25:05,0.789307,-0.068359,0.590576
17:25:05,0.717529,-0.126709,0.547119
17:25:05,0.702881,-0.215332,0.622314
17:25:05,0.718506,-0.259766,0.65625
17:25:05,0.70459,-0.317871,0.630371
17:25:05,0.701172,-0.378906,0.592529
17:25:05,0.714355,-0.429443,0.623291
17:25:05,0.733643,-0.457275,0.712646
17:25:05,0.725098,-0.43042,0.682373
17:25:05,0.708496,-0.348389,0.611572
17:25:05,0.691162,-0.254883,0.56543
17:25:05,0.688477,-0.160889,0.568115
17:25:05,0.688965,-0.076904,0.595947
17:25:05,0.630615,-0.010986,0.56958
17:25:05,0.399658,0.050781,0.509277
17:25:05,1.23291,0.110107,0.694824
17:25:05,1.598389,0.109863,0.428711
17:25:05,0.679443,0.167725,0.02417
17:25:05,0.502686,0.489014,0.485107
17:25:05,0.787109,0.597656,0.977783
17:25:05,0.051514,-0.150879,1.799561
17:25:05,-0.918945,-0.714355,2.311523
17:25:05,0.463623,0.252441,0.946045
17:25:05,1.965332,1.126465,0.573242
17:25:05,1.191162,0.63501,0.342529
17:25:05,1.99585,0.735352,0.866455
17:25:05,2.10376,0.225098,1.449219
17:25:05,3.040283,0.126221,1.67041
17:25:05,3.378662,0.754395,-1.536377
17:25:05,7.999756,2.310547,-0.202148
17:25:05,6.601807,0.652344,-3.717285
17:25:05,4.332764,0.391602,0.355957
17:25:05,2.20459,0.092285,1.072754
17:25:05,1.003174,0.123291,0.696045
17:25:05,0.372314,0.359375,-0.219238
17:25:05,0.041504,0.624268,-0.693604
17:25:05,-0.08667,0.804688,-0.739258
17:25:05,-0.387939,1.164063,-0.191406
17:25:06,-2.108887,1.529541,0.539307
17:25:06,-2.794434,1.698486,-0.702393
17:25:06,-1.11377,1.750977,-0.039551
17:25:06,0.821533,1.912842,0.891602
17:25:06,1.046387,1.395996,0.314453
17:25:06,0.815674,0.827881,0.174561
17:25:06,1.019531,0.696533,0.777588
17:25:06,1.129883,0.518311,0.948486
17:25:06,1.317627,0.33667,0.821533
17:25:06,1.884521,0.350586,1.008545
17:25:06,2.717041,0.576904,0.902344
17:25:06,3.322021,0.694824,0.614014
17:25:06,2.950195,0.587402,0.205566
17:25:06,2.518799,0.867188,-1.019043
17:25:06,3.223877,1.393066,-1.61377
17:25:06,3.061768,1.009521,-2.439209
17:25:06,3.059814,0.446045,-2.673584
17:25:06,3.093018,-0.039063,-2.874268
17:25:06,2.749756,-0.171875,-3.661621
17:25:06,1.91748,0.032715,-4.124756
17:25:06,1.103516,0.126953,-4.085205
17:25:06,0.62793,0.093994,-3.773438
17:25:06,0.696289,0.075684,-3.054443
17:25:06,1.161865,0.133545,-2.789063
17:25:06,0.906982,0.341797,-3.30957
17:25:06,-0.130127,0.790771,-3.623779
17:25:06,2.609619,0.82251,1.186768
17:25:06,1.896729,-0.183594,1.737549
17:25:06,0.247559,-0.78125,-0.296143
17:25:06,2.284424,-1.699707,4.018555
17:25:06,3.90918,-1.526855,5.090332
17:25:06,0.970459,-0.461182,0.161133
17:25:06,2.543945,-0.552002,-1.637695
17:25:06,4.648438,-0.804443,-1.732422
17:25:06,2.406494,-0.353516,-1.079102
17:25:06,1.301758,-0.07251,0.805664
17:25:06,1.137695,-0.029053,0.947998
17:25:06,0.317871,0.048828,0.259277
17:25:06,0.177979,0.067627,0.53833
17:25:06,-0.018066,0.057373,1.164307
17:25:06,-0.346436,0.111328,1.436279
17:25:06,-0.313721,0.26123,0.996094
17:25:06,0.156006,0.371826,0.590332
17:25:06,0.549805,0.381592,0.764893
17:25:06,0.697998,0.364746,0.81665
17:25:06,0.687256,0.296875,0.569824
17:25:06,0.80127,0.237061,0.529297
17:25:06,0.864014,0.177734,0.583008
17:25:06,0.840332,0.119629,0.593262
17:25:06,0.795898,0.076416,0.578857
17:25:06,0.798584,0.032715,0.640625
17:25:06,0.693115,-0.010986,0.562256
17:25:06,0.687744,-0.055176,0.640869
17:25:06,0.679443,-0.105713,0.751465
17:25:06,0.613525,-0.091797,0.641113
17:25:06,0.645264,-0.127197,0.672852
17:25:06,0.647461,-0.162354,0.578369
17:25:06,0.713867,-0.194336,0.623535
17:25:06,0.736816,-0.21582,0.598877
17:25:06,0.737793,-0.222168,0.581543
17:25:06,0.783203,-0.215576,0.621094
17:25:06,0.791748,-0.180176,0.549561
17:25:06,0.772949,-0.128906,0.464111
17:25:06,0.810059,-0.091309,0.483643
17:25:06,0.832031,-0.0625,0.542725
17:25:06,0.745605,-0.030029,0.572266
17:25:06,0.590088,-0.006104,0.586914
17:25:06,0.947266,0.003906,0.666016
17:25:06,1.283203,0.030762,0.564453
17:25:06,0.803467,0.081055,0.345947
17:25:06,0.48584,0.118408,0.608887
17:25:06,0.211182,0.219238,0.948975
17:25:06,0.521484,0.333496,1.160156
17:25:06,0.33374,0.098877,1.600586
17:25:06,0.085449,0.001953,1.937744
17:25:06,0.714844,0.29126,0.881592
17:25:06,1.427734,0.820068,0.592041
17:25:06,1.460693,0.618164,0.596924
17:25:06,2.219482,0.930908,1.052246
17:25:06,1.524658,-0.009766,1.123535
17:25:06,2.866699,0.569824,1.234375
17:25:06,7.549072,3.161865,-0.831055
17:25:06,7.999756,1.812744,-3.738037
17:25:06,5.726318,0.379395,-2.157959
17:25:06,3.4729,0.04126,0.967773
17:25:06,1.536133,0.021729,1.193359
17:25:06,0.495605,0.028809,0.348633
17:25:06,0.087646,0.223145,-0.125977
17:25:06,-0.044434,0.470947,-0.132568
17:25:06,-0.139404,0.642578,-0.081787
17:25:06,-1.504883,0.689453,0.625488
17:25:06,-2.689453,0.994385,-0.052246
17:25:06,-1.776123,1.248779,-0.312744
17:25:06,-0.051758,1.142578,0.9646
17:25:06,1.039551,1.459473,1.237793
17:25:06,1.358154,1.751465,0.395264
17:25:06,1.266357,1.315186,-0.081787
17:25:06,1.281006,0.866455,0.310791
17:25:06,1.215332,0.520996,0.771484
17:25:06,1.222656,0.320313,1.279785
17:25:07,1.760742,0.298096,1.551025
17:25:07,2.335938,0.412842,1.391113
17:25:07,2.796387,0.738525,0.832031
17:25:07,3.133789,1.566895,-0.289063
17:25:07,3.036621,1.873047,-1.833008
17:25:07,3.44043,1.756348,-2.456543
17:25:07,3.305908,0.719482,-2.446289
17:25:07,3.233887,0.059814,-2.673584
17:25:07,3.166992,-0.395752,-3.211182
17:25:07,2.484619,-0.288818,-3.856201
17:25:07,1.525146,-0.099854,-4.043701
17:25:07,0.773926,0.118408,-4.053955
17:25:07,0.718018,0.237305,-3.487305
17:25:07,0.928955,0.345947,-3.278809
17:25:07,0.092041,0.491699,-4.972412
17:25:07,-1.200439,0.766357,-5.889404
17:25:07,4.20874,0.971924,2.433105
17:25:07,3.915283,-0.13501,3.540771
17:25:07,0.379639,-1.041016,-0.787598
17:25:07,2.75,-1.699951,2.880615
17:25:07,3.611572,-1.354004,3.500977
17:25:07,0.763916,-0.419189,-1.284424
17:25:07,2.162354,-0.660645,-0.876221
17:25:07,3.904785,-0.637695,0.066162
17:25:07,2.518311,0.145752,-0.946533
17:25:07,2.130127,0.275146,-0.015137
17:25:07,1.359863,0.15332,0.158203
17:25:07,0.762695,0.062744,0.18335
17:25:07,0.65625,0.012695,0.580811
17:25:07,0.420166,-0.001709,0.859619
17:25:07,-0.187012,0.020752,1.200928
17:25:07,-0.665039,0.067627,1.317871
17:25:07,-0.505371,0.142822,0.881348
17:25:07,0.248291,0.065674,0.623291
17:25:07,0.697998,-0.006348,0.907715
17:25:07,0.862305,-0.031494,0.895264
17:25:07,0.780518,-0.015869,0.517822
17:25:07,0.955566,0.01123,0.499268
17:25:07,1.108643,0.083984,0.523193
17:25:07,0.992432,0.147461,0.379639
17:25:07,0.914307,0.185547,0.469238
17:25:07,0.786377,0.181152,0.57251
17:25:07,0.671387,0.138428,0.645996
17:25:07,0.571533,0.112305,0.652344
17:25:07,0.503174,0.03833,0.685059
17:25:07,0.517822,-0.061035,0.732178
17:25:07,0.529053,-0.130127,0.728027
17:25:07,0.536621,-0.200684,0.656982
17:25:07,0.608643,-0.273926,0.598877
17:25:07,0.702881,-0.322998,0.598389
17:25:07,0.763672,-0.329834,0.575684
17:25:07,0.796631,-0.29541,0.471191
17:25:07,0.817139,-0.238281,0.391357
17:25:07,0.908203,-0.177979,0.492188
17:25:07,1.233154,-0.10083,0.548584
17:25:07,1.340576,-0.020752,0.321533
17:25:07,0.862305,0.017822,0.206055
17:25:07,0.64917,0.059326,0.520996
17:25:07,0.658203,0.123535,0.913086
17:25:07,0.439453,0.251709,0.815674
17:25:07,0.260498,0.400146,0.690674
17:25:07,0.517334,0.573975,0.699219
17:25:07,0.741943,0.308594,0.761475
17:25:07,0.197021,0.121582,1.867432
17:25:07,0.0896,0.026123,2.487793
17:25:07,0.775879,0.640137,0.494141
17:25:07,1.553711,1.158447,0.665283
17:25:07,1.664795,1.009521,0.822021
17:25:07,1.394531,0.287109,0.860352
17:25:07,2.912842,0.432373,2.363281
17:25:07,2.801514,0.651611,-0.661377
17:25:07,7.071289,2.347412,-0.000977
17:25:07,7.999756,0.683594,-3.759277
17:25:07,5.224365,-0.115967,-1.477539
17:25:07,2.865234,0.035889,1.309814
17:25:07,1.268311,0.031982,0.921143
17:25:07,0.315918,0.248291,-0.163086
17:25:07,-0.071777,0.566406,-0.722412
17:25:07,-0.182373,0.759033,-0.840088
17:25:07,-0.291016,0.95874,-0.542969
17:25:07,-2.115479,1.291504,0.480469
17:25:07,-3.458252,1.44873,-0.193604
17:25:07,-1.740234,1.398193,-0.619385
17:25:07,0.530273,1.720947,1.26123
17:25:07,1.523926,1.881836,0.759277
17:25:07,1.106201,1.209961,-0.16748
17:25:07,1.243408,0.848389,0.333984
17:25:07,1.467041,0.78418,0.739502
17:25:07,1.489014,0.628906,0.702148
17:25:07,1.787109,0.500488,0.95874
17:25:07,2.227295,0.434814,0.851074
17:25:07,2.720947,0.513184,0.283936
17:25:07,3.474365,0.614258,-0.355713
17:25:07,3.814941,0.607422,-0.63208
17:25:07,3.654053,0.459961,-0.90918
17:25:07,3.234863,0.306152,-1.168701
17:25:07,3.07666,0.276611,-1.534912
17:25:07,3.007324,0.320313,-1.674316
17:25:07,2.97998,0.456299,-1.93457
17:25:08,3.069092,0.638916,-2.413086
17:25:08,2.845215,0.739258,-3.099121
17:25:08,2.178467,0.554443,-3.470459
17:25:08,1.348877,0.192871,-3.114746
17:25:08,1.895752,0.094238,-2.687744
17:25:08,2.758789,0.454346,-2.45874
17:25:08,1.079102,0.376221,-2.414795
17:25:08,0.356934,0.077637,-0.599854
17:25:08,0.796143,-0.900879,2.239502
17:25:08,-0.105713,-1.682861,1.928955
17:25:08,2.319824,-2.62793,3.463867
17:25:08,4.505859,-2.609863,3.637695
17:25:08,1.576172,-0.685547,-2.050537
17:25:08,1.755859,-0.25415,-2.407227
17:25:08,4.300293,-0.177002,-0.059326
17:25:08,3.306152,0.543945,-0.880371
17:25:08,2.070313,0.712891,-0.811035
17:25:08,1.77832,0.558594,0.19751
17:25:08,0.840576,0.311768,0.05835
17:25:08,0.425537,0.146973,0.288574
17:25:08,0.243652,0.133057,0.845947
17:25:08,-0.310547,0.088623,1.286133
17:25:08,-0.830078,0.060791,1.491455
17:25:08,-0.716309,0.046631,1.012939
17:25:08,-0.007568,0.017822,0.554199
17:25:08,0.475342,-0.026367,0.749023
17:25:08,0.942871,-0.05957,1.046387
17:25:08,0.820801,-0.061279,0.64624
17:25:08,0.811279,-0.077148,0.399414
17:25:08,1.10498,-0.068115,0.557861
17:25:08,1.042969,-0.049805,0.552246
17:25:08,0.950684,-0.043701,0.536865
17:25:08,0.834473,-0.050537,0.544678
17:25:08,0.724854,-0.092041,0.618164
17:25:08,0.615723,-0.12085,0.693604
17:25:08,0.553223,-0.124512,0.712158
17:25:08,0.519775,-0.176758,0.687988
17:25:08,0.527832,-0.252197,0.663818
17:25:08,0.592773,-0.31543,0.642822
17:25:08,0.647461,-0.364502,0.613525
17:25:08,0.699463,-0.390381,0.572754
17:25:08,0.755615,-0.379395,0.488037
17:25:08,0.805908,-0.325439,0.415771
17:25:08,0.869141,-0.275879,0.427002
17:25:08,0.873535,-0.206543,0.464355
17:25:08,0.933594,-0.13623,0.504639
17:25:08,1.10083,-0.095703,0.473389
17:25:08,0.937744,-0.049072,0.319336
17:25:08,1.423828,0.02124,0.454102
17:25:08,0.718994,0.113037,0.297119
17:25:08,0.162354,0.061768,0.663086
17:25:08,0.131836,0.09375,0.950195
17:25:08,0.448242,0.07666,1.093262
17:25:08,0.855469,0.297363,1.002197
17:25:08,0.56543,0.462891,0.994873
17:25:08,0.405518,0.149414,1.760498
17:25:08,0.618408,0.534668,1.255371
17:25:08,0.886719,0.757813,0.637695
17:25:08,2.120361,0.877197,1.055176
17:25:08,1.717285,0.603516,1.104736
17:25:08,2.363037,0.427979,2.195068
17:25:08,2.714844,0.93335,-0.787842
17:25:08,6.610107,3.301758,-0.740479
17:25:08,7.999756,1.123779,-2.596191
17:25:08,5.399902,-0.877197,-1.933105
17:25:08,3.071777,-0.185547,1.135742
17:25:08,1.534668,-0.010254,1.216309
17:25:08,0.50708,0.029053,0.357666
17:25:08,0.198486,0.263184,-0.038086
17:25:08,-0.01123,0.528809,-0.065674
17:25:08,-0.100098,0.693359,-0.23584
17:25:08,-0.323975,0.882813,-0.256348
17:25:08,-1.204102,0.995117,0.333984
17:25:08,-2.140869,0.980713,0.521973
17:25:08,-0.995361,1.110107,-0.145996
17:25:08,0.258545,0.873291,1.082764
17:25:08,0.833984,0.976318,1.219727
17:25:08,1.015625,1.037354,0.780762
17:25:08,1.363525,1.306152,0.54126
17:25:08,1.63501,1.276611,0.204834
17:25:08,1.855957,0.876709,0.319092
17:25:08,2.261475,0.560303,0.577881
17:25:08,2.102051,0.048096,1.311523
17:25:08,2.087646,-0.135498,0.970703
17:25:08,2.427002,-0.004883,0.550049
17:25:08,3.641113,1.139893,-0.6521
17:25:08,3.445801,1.652344,-2.5625
17:25:08,4.313965,1.023926,-2.888184
17:25:08,3.911133,-0.183838,-3.71167
17:25:08,2.658203,-0.528076,-3.359131
17:25:08,1.497803,-0.241455,-2.843994
17:25:08,0.738525,0.256836,-3.658691
17:25:08,0.659424,0.43335,-4.217529
17:25:08,0.845947,0.313965,-3.843262
17:25:08,1.276855,0.388184,-3.095703
17:25:08,0.557129,0.515625,-3.861816
17:25:08,-0.854736,0.650635,-4.96875
17:25:08,2.126709,0.803467,0.066406
17:25:08,4.268799,0.150635,4.213379
17:25:08,0.823242,-0.874756,0.2771
17:25:08,1.559814,-1.418457,1.338135
17:25:09,3.900879,-1.590332,4.575928
17:25:09,1.585205,-0.621338,-0.360352
17:25:09,1.203857,-0.695801,-2.013184
17:25:09,4.362305,-1.392822,0.037598
17:25:09,2.653809,-0.472656,-1.208008
17:25:09,1.992188,-0.223145,0.173096
17:25:09,1.381348,-0.143311,0.375488
17:25:09,0.682129,-0.068359,0.090576
17:25:09,0.573242,0.062988,0.320801
17:25:09,0.244141,-0.000488,0.957031
17:25:09,-0.421875,0.084473,1.412598
17:25:09,-0.622559,0.147217,1.204834
17:25:09,-0.257813,0.200928,0.752441
17:25:09,0.305908,0.179688,0.694092
17:25:09,0.792969,0.158203,0.954346
17:25:09,0.782471,0.15332,0.713867
17:25:09,0.759033,0.165283,0.493164
17:25:09,0.916016,0.176758,0.589111
17:25:09,0.876953,0.221924,0.579102
17:25:09,0.761719,0.230957,0.613281
17:25:09,0.705078,0.2146,0.687988
17:25:09,0.604004,0.187988,0.612549
17:25:09,0.549316,0.11377,0.593262
17:25:09,0.560547,0.01416,0.663818
17:25:09,0.564209,-0.072266,0.727295
17:25:09,0.598145,-0.141602,0.753418
17:25:09,0.630615,-0.19458,0.639404
17:25:09,0.66626,-0.239502,0.546387
17:25:09,0.742676,-0.2854,0.62915
17:25:09,0.782715,-0.293457,0.665771
17:25:09,0.790771,-0.224121,0.525391
17:25:09,0.773926,-0.130371,0.407227
17:25:09,0.839355,-0.056641,0.460938
17:25:09,0.838867,0.016113,0.460693
17:25:09,0.788086,0.070801,0.404541
17:25:09,0.799805,0.095459,0.465576
17:25:09,1.121094,0.093018,0.573975
17:25:09,1.5625,0.077881,0.34375
17:25:09,0.750732,0.103516,0.2146
17:25:09,0.657715,0.243164,0.42041
17:25:09,0.665039,0.211914,0.909668
17:25:09,0.391846,0.191406,1.054932
17:25:09,0.524414,0.086426,1.102051
17:25:09,-0.52832,-0.347656,2.056641
17:25:09,0.072754,-0.124023,1.730713
17:25:09,1.427002,0.697021,0.621582
17:25:09,1.496826,0.745361,0.568359
17:25:09,1.324951,0.678223,0.897705
17:25:09,1.765625,0.222656,1.210205
17:25:09,2.734619,0.144775,2.005859
17:25:09,2.189209,0.157959,0.410889
17:25:09,5.396484,2.993164,-0.051758
17:25:09,7.999756,3.424316,-1.459473
17:25:09,6.472168,0.25708,-2.817627
17:25:09,3.593262,-0.213623,0.263184
17:25:09,1.936035,-0.034912,1.474121
17:25:09,0.618408,-0.005859,0.553955
17:25:09,0.245605,0.222412,-0.142578
17:25:09,0.02832,0.558105,-0.422607
17:25:09,-0.195557,0.623779,-0.22583
17:25:09,-0.362793,0.731689,-0.184814
17:25:09,-1.229248,0.73877,0.196533
17:25:09,-2.33374,0.923096,0.417236
17:25:09,-1.150391,1.140869,-0.173096
17:25:09,0.262451,1.094727,0.932373
17:25:09,0.904053,1.165771,1.107422
17:25:09,1.337891,1.481445,0.790283
17:25:09,1.477539,1.467041,0.185303
17:25:09,1.512695,1.205811,0.086182
17:25:09,1.500244,0.833252,0.369873
17:25:09,1.756836,0.513916,0.868408
17:25:09,2.228516,0.383301,1.047119
17:25:09,2.720703,0.489746,0.503418
17:25:09,2.54541,0.325684,0.605469
17:25:09,2.454834,0.662109,-0.131836
17:25:09,2.855957,1.66333,-1.351563
17:25:09,3.080566,2.182617,-2.615967
17:25:09,2.988037,1.653564,-3.372559
17:25:09,3.422607,0.430176,-3.235352
17:25:09,3.047119,-0.319336,-4.205078
17:25:09,1.808838,-0.594238,-4.914307
17:25:09,0.905029,-0.726563,-4.018555
17:25:09,0.562744,-0.496338,-3.160156
17:25:09,0.570801,-0.200195,-2.96167
17:25:09,-0.399414,0.332031,-4.484131
17:25:09,-0.072266,0.981934,-3.781006
17:25:09,3.329834,0.69043,2.049072
17:25:09,3.032471,-0.11499,2.69873
17:25:09,0.054199,-0.646973,-0.687012
17:25:09,2.404053,-1.293945,2.782471
17:25:09,4.731934,-1.098389,5.239746
17:25:09,1.29541,0.123535,-1.47168
17:25:09,1.295654,-0.033203,-2.835449
17:25:09,6.124268,-0.381592,0.300049
17:25:09,2.254639,-0.168701,-1.840088
17:25:09,2.225342,-0.170898,0.381104
17:25:09,1.137939,-0.217529,0.224854
17:25:09,0.513672,-0.192871,0.094482
17:25:09,0.2771,-0.161133,0.484375
17:25:09,0.121094,-0.151123,1.160156
17:25:10,-0.746094,-0.088867,1.520996
17:25:10,-1.112549,0.000244,1.343262
17:25:10,-0.485352,0.107178,0.563965
17:25:10,0.152344,0.12207,0.480957
17:25:10,0.545166,0.079102,0.981445
17:25:10,0.954346,0.159912,1.01709
17:25:10,1.085449,0.268311,0.470703
17:25:10,1.200195,0.357666,0.178467
17:25:10,1.182373,0.310791,0.466797
17:25:10,0.779541,0.191406,0.57959
17:25:10,0.504883,0.109863,0.595947
17:25:10,0.496338,0.025879,0.750488
17:25:10,0.499268,-0.015381,0.702148
17:25:10,0.531982,-0.052734,0.701904
17:25:10,0.574951,-0.121826,0.73877
17:25:10,0.609619,-0.168701,0.669189
17:25:10,0.689209,-0.177734,0.571289
17:25:10,0.792236,-0.189453,0.555908
17:25:10,0.841064,-0.188232,0.540039
17:25:10,0.862549,-0.184082,0.507568
17:25:10,0.859619,-0.146973,0.481445
17:25:10,0.857422,-0.086426,0.485352
17:25:10,0.82373,-0.043213,0.500977
17:25:10,0.749023,0.000244,0.515869
17:25:10,0.690918,0.029785,0.544678
17:25:10,0.633057,0.044189,0.589844
17:25:10,0.512451,0.076416,0.600586
17:25:10,1.053467,0.053955,0.723633
17:25:10,0.587891,0.156494,0.406982
17:25:10,0.233398,0.118164,0.50415
17:25:10,0.59082,0.312256,0.813965
17:25:10,1.080078,0.582764,0.719971
17:25:10,1.165527,0.120361,1.233398
17:25:10,0.554199,-0.294434,2.122803
17:25:10,1.055664,0.071533,1.510986
17:25:10,1.170166,0.327148,0.317627
17:25:10,1.50708,0.181641,0.600342
17:25:10,2.83252,0.245605,1.891602
17:25:10,1.910156,0.340332,0.198486
17:25:10,4.55127,1.760742,-0.871826
17:25:10,7.999756,2.264648,-2.012695
17:25:10,6.509033,0.764648,-2.677246
17:25:10,2.858398,0.520996,1.581055
17:25:10,1.476318,0.065918,1.402344
17:25:10,0.462158,0.200195,0.262695
17:25:10,0.039795,0.421631,-0.309326
17:25:10,-0.122803,0.580566,-0.079102
17:25:10,-0.521973,0.721191,0.44043
17:25:10,-1.550537,0.888428,0.701172
17:25:10,-2.476074,1.202393,-0.278809
17:25:10,-1.305176,1.179199,-0.121094
17:25:10,0.031982,1.042236,1.097412
17:25:10,0.7146,1.03125,1.016846
17:25:10,0.885742,1.026611,0.747559
17:25:10,1.255859,1.152832,0.687744
17:25:10,1.45752,1.096924,0.48877
17:25:10,1.713135,0.866211,0.47998
17:25:10,1.994629,0.559326,0.466064
17:25:10,2.280762,0.31958,0.519287
17:25:10,2.574463,0.171631,0.448486
17:25:10,3.551025,0.018311,0.487305
17:25:10,3.777344,-0.0896,-0.400146
17:25:10,2.917969,-0.19873,-0.918701
17:25:10,2.943115,-0.304443,-0.799561
17:25:10,3.355957,-0.152588,-1.118408
17:25:10,3.266113,0.179199,-1.567871
17:25:10,3.156738,0.5625,-1.949463
17:25:10,2.671631,0.68457,-2.194824
17:25:10,2.058594,0.783447,-3.212402
17:25:10,2.237549,1.000977,-4.401611
17:25:10,2.376953,0.649658,-3.543213
17:25:10,2.293457,0.186279,-2.608398
17:25:10,2.641846,0.114258,-2.48877
17:25:10,1.541992,0.141602,-1.881836
17:25:10,-0.469482,0.374512,-2.01123
17:25:10,0.177002,-0.006836,0.474121
17:25:10,1.037598,-0.689941,2.756592
17:25:10,-0.057617,-1.823975,0.911377
17:25:10,1.678711,-2.220215,1.911133
17:25:10,5.813965,-3.712646,5.53125
17:25:10,1.765869,-0.870361,-2.331055
17:25:10,4.118652,-0.398193,-3.836426
17:25:10,5.60376,-0.36792,-0.653076
17:25:10,1.857422,-0.189453,-0.48584
17:25:10,0.917725,-0.14917,0.158203
17:25:10,0.556152,-0.078857,0.619629
17:25:10,0.218018,-0.033691,0.70459
17:25:10,-0.179443,0.037842,0.895508
17:25:10,-0.65625,0.169678,1.143311
17:25:10,-0.652588,0.355225,1.010742
17:25:10,-0.124023,0.57373,0.692871
17:25:10,0.586182,0.783936,0.715332
17:25:10,0.920898,0.866943,0.546875
17:25:10,0.947998,0.77417,0.322266
17:25:10,0.998291,0.551514,0.390381
17:25:10,0.957031,0.298828,0.464844
17:25:10,0.822021,0.074707,0.541016
17:25:10,0.704834,-0.08252,0.686523
17:25:10,0.594482,-0.168457,0.772949
17:25:10,0.535889,-0.224365,0.773926
17:25:11,0.535156,-0.243896,0.718262
17:25:11,0.609131,-0.252197,0.699463
17:25:11,0.693848,-0.248291,0.659912
17:25:11,0.738525,-0.256836,0.591553
17:25:11,0.788818,-0.284424,0.612305
17:25:11,0.780029,-0.283203,0.514404
17:25:11,0.788818,-0.300293,0.508301
17:25:11,0.844482,-0.311279,0.596436
17:25:11,0.792725,-0.276367,0.543457
17:25:11,0.749512,-0.201172,0.515381
17:25:11,0.766113,-0.114014,0.531494
17:25:11,0.721436,-0.011719,0.500977
17:25:11,0.719482,0.091309,0.512695
17:25:11,0.714111,0.199951,0.5354
17:25:11,0.63501,0.268066,0.479248
17:25:11,0.441406,0.328613,0.450684
17:25:11,1.123535,0.273438,0.605225
17:25:11,0.763672,0.334961,0.317871
17:25:11,1.250977,0.215088,0.63501
17:25:11,1.018799,-0.009521,0.621094
17:25:11,0.760986,0.448486,0.151367
17:25:11,0.760254,0.193604,0.83374
17:25:11,-0.008789,-0.236084,3.105469
17:25:11,-0.322266,0.334717,2.36084
17:25:11,0.804688,1.181885,0.279053
17:25:11,1.49707,1.201904,0.330566
17:25:11,1.86377,0.545654,0.993164
17:25:11,2.477539,0.471191,1.549805
17:25:11,3.043945,1.031738,-0.561523
17:25:11,5.953857,2.551025,-2.001953
17:25:11,7.999756,3.089355,1.333252
17:25:11,5.931885,-0.195068,1.535645
17:25:11,1.601563,-0.550049,1.181152
17:25:11,1.046143,-0.371826,1.591553
17:25:11,0.748779,-0.240234,1.525879
17:25:11,0.379639,-0.009277,0.876709
17:25:11,0.181396,0.164063,0.883301
17:25:11,0.087891,0.342285,0.80127
17:25:11,0.031006,0.5625,0.562256
17:25:11,0.055176,0.709961,0.395508
17:25:11,0.220215,0.820313,0.396729
17:25:11,0.485352,0.848389,0.523438
17:25:11,0.708008,0.799805,0.484131
17:25:11,0.860352,0.71875,0.420898
17:25:11,1.047852,0.595215,0.461426
17:25:11,1.229736,0.429932,0.532227
17:25:11,1.408447,0.275146,0.525391
17:25:11,1.671631,0.182617,0.700684
17:25:11,2.497559,0.09668,1.089111
17:25:11,2.749756,0.05542,0.745361
17:25:11,3.127686,0.177734,-0.062988
17:25:11,3.582275,0.365967,-0.93335
17:25:11,3.255127,0.3396,-1.288086
17:25:11,2.977783,0.316406,-1.235596
17:25:11,3.168945,0.564453,-1.507568
17:25:11,3.191162,0.855225,-2.033936
17:25:11,2.885498,1.031494,-2.681152
17:25:11,2.502441,1.079834,-3.375732
17:25:11,2.088623,0.919434,-3.838135
17:25:11,1.735107,0.589355,-3.794922
17:25:11,1.711914,0.328857,-3.422852
17:25:11,1.998047,0.19751,-3.03418
17:25:11,2.299316,0.106934,-2.621826
17:25:11,1.775391,0.017334,-1.755127
17:25:11,0.373779,0.108887,-1.140381
17:25:11,0.509033,-0.048828,0.468018
17:25:11,0.068848,-0.555664,0.619873
17:25:11,-0.445557,-1.59375,0.219727
17:25:11,-1.037598,-2.177734,1.98877
17:25:11,5.96582,-3.849121,7.955566
17:25:11,4.336426,-1.667236,-0.231934
17:25:11,2.217529,-0.200684,-7.085693
17:25:11,5.736084,-0.855957,0.400879
17:25:11,2.521973,-0.596924,0.151367
17:25:11,0.353271,-0.434326,-0.536377
17:25:11,0.538818,-0.363281,0.761719
17:25:11,0.438965,-0.254883,1.220459
17:25:11,0.041016,-0.102051,0.826904
17:25:11,-0.097168,0.03125,0.641846
17:25:11,-0.103027,0.187988,0.701416
17:25:11,0.027832,0.42334,0.889404
17:25:11,0.26001,0.684082,0.760254
17:25:11,0.515625,0.870605,0.427734
17:25:11,0.736572,0.862061,0.450195
17:25:11,0.732422,0.651123,0.542725
17:25:11,0.589844,0.364258,0.581055
17:25:11,0.494385,0.125488,0.705566
17:25:11,0.452637,-0.023682,0.752441
17:25:11,0.490723,-0.113037,0.727051
17:25:11,0.61792,-0.168945,0.736084
17:25:11,0.731201,-0.178711,0.632324
17:25:11,0.800293,-0.209717,0.552734
17:25:11,0.876953,-0.24585,0.487305
17:25:11,0.936768,-0.322998,0.582275
17:25:11,0.852539,-0.380127,0.543701
17:25:11,0.795166,-0.422852,0.515869
17:25:11,0.766113,-0.437744,0.560791
17:25:11,0.765381,-0.413818,0.609131
17:25:11,0.764404,-0.301025,0.57373
17:25:11,0.777832,-0.177246,0.482422
17:25:12,0.791016,-0.094727,0.431641
17:25:12,0.828369,-0.0271,0.495605
17:25:12,0.805664,-0.003174,0.542725
17:25:12,0.7229,0.014404,0.543945
17:25:12,0.55835,0.003174,0.550293
17:25:12,0.912598,0.011475,0.712402
17:25:12,0.800049,0.009277,0.473389
17:25:12,0.23877,-0.019775,0.442871
17:25:12,0.065918,-0.064209,0.740479
17:25:12,0.780273,0.380615,0.910156
17:25:12,1.193359,0.698242,0.530273
17:25:12,1.202148,0.4729,0.081787
17:25:12,1.425293,0.155518,0.880127
17:25:12,0.813232,-0.364502,2.282227
17:25:12,0.418457,-0.53833,1.88623
17:25:12,1.254395,-0.130371,0.315674
17:25:12,2.166504,-0.068115,0.312744
17:25:12,4.087891,0.144043,-0.489746
17:25:12,6.515381,1.070557,-2.351318
17:25:12,7.999756,1.021729,0.875244
17:25:12,7.388672,0.386719,2.075684
17:25:12,3.059326,0.121582,1.468262
17:25:12,1.472412,0.126221,1.404785
17:25:12,0.890869,0.200684,1.225342
17:25:12,0.479492,0.474121,0.807373
17:25:12,0.262939,0.933838,0.556152
17:25:12,0.580078,1.733154,0.490479
17:25:12,0.231201,1.80127,-0.099609
17:25:12,-0.022461,1.518066,-0.02124
17:25:12,-0.06665,1.027588,0.459717
17:25:12,-0.076416,0.608154,0.643311
17:25:12,0.070068,0.412109,0.61084
17:25:12,0.32251,0.360107,0.568359
17:25:12,0.629639,0.345703,0.631104
17:25:12,1.049561,0.408447,0.701416
17:25:12,1.39502,0.45166,0.515381
17:25:12,1.696533,0.474854,0.236084
17:25:12,2.352539,0.467773,0.303711
17:25:12,2.588867,0.249023,0.398193
17:25:12,2.547852,-0.027588,0.595703
17:25:12,2.820801,-0.110107,0.488525
17:25:12,3.022949,-0.037598,-0.419189
17:25:12,3.158447,-0.018311,-1.024414
17:25:12,3.258789,-0.103027,-1.134033
17:25:12,3.307129,-0.04126,-1.483154
17:25:12,3.229248,0.175537,-1.866699
17:25:12,2.939453,0.42627,-2.361084
17:25:12,2.606201,0.617188,-3.128174
17:25:12,2.176758,0.668945,-3.700195
17:25:12,1.753418,0.534912,-3.661621
17:25:12,1.507568,0.421875,-3.303955
17:25:12,1.633545,0.389404,-2.851563
17:25:12,2.017334,0.450928,-2.631348
17:25:12,0.707275,0.796631,-3.970215
17:25:12,-0.122314,0.480469,-2.046875
17:25:12,2.801025,0.121582,3.769043
17:25:12,1.557617,-0.815918,2.127197
17:25:12,1.106201,-1.349121,0.282471
17:25:12,4.664551,-3.021973,4.06958
17:25:12,3.143555,-1.113037,-1.854004
17:25:12,3.73877,-0.581787,-1.611328
17:25:12,3.298096,-0.70874,0.046143
17:25:12,1.58374,-0.605225,0.07373
17:25:12,0.923828,-0.52832,0.434082
17:25:12,0.745361,-0.378174,0.733643
17:25:12,0.457764,-0.280762,0.625732
17:25:12,0.325439,-0.217529,0.703125
17:25:12,0.30835,-0.14624,0.936523
17:25:12,0.264893,-0.054443,0.860596
17:25:12,0.324219,0.109375,0.694092
17:25:12,0.582764,0.280273,0.662598
17:25:12,0.814453,0.426758,0.540039
17:25:12,0.835449,0.479736,0.460693
17:25:12,0.743408,0.382324,0.572266
17:25:12,0.609863,0.224854,0.65625
17:25:12,0.526123,0.081299,0.675781
17:25:12,0.535889,-0.013184,0.750732
17:25:12,0.593994,-0.072754,0.735596
17:25:12,0.675049,-0.084717,0.619629
17:25:12,0.761719,-0.132324,0.558105
17:25:12,0.796631,-0.17749,0.576904
17:25:12,0.747559,-0.237305,0.547363
17:25:12,0.688477,-0.310547,0.60791
17:25:12,0.657471,-0.384277,0.655273
17:25:12,0.650635,-0.447266,0.634277
17:25:12,0.715088,-0.468994,0.550293
17:25:12,0.821777,-0.455566,0.456543
17:25:12,0.895752,-0.460205,0.387695
17:25:12,0.920654,-0.416992,0.335693
17:25:12,0.933594,-0.333252,0.427246
17:25:12,0.873291,-0.229492,0.356201
17:25:12,0.813477,-0.117432,0.348389
17:25:12,0.769775,-0.032715,0.455566
17:25:12,0.669678,0.052734,0.502197
17:25:12,0.985352,0.152344,0.457275
17:25:12,0.68457,0.162109,0.349854
17:25:12,0.216797,0.134766,0.476563
17:25:12,0.229248,0.129395,0.604736
17:25:12,0.773926,0.500488,0.526611
17:25:12,1.333008,0.871338,0.262695
17:25:13,0.999512,0.523682,0.112793
17:25:13,1.313965,0.038086,0.730225
17:25:13,1.481445,-0.330566,1.837646
17:25:13,0.501221,-0.468018,2.34375
17:25:13,0.639893,-0.312012,0.909912
17:25:13,1.587646,-0.210205,0.550049
17:25:13,3.560547,0.100098,0.059814
17:25:13,4.623535,0.916016,-3.460205
17:25:13,7.558105,0.990234,0.029053
17:25:13,7.859131,0.67749,2.216553
17:25:13,4.47168,0.41626,1.443848
17:25:13,1.831055,0.253662,1.380615
17:25:13,0.907715,0.238281,1.19043
17:25:13,0.486816,0.430664,1.058105
17:25:13,0.205811,0.615723,0.864014
17:25:13,0.266846,1.203369,0.781006
17:25:13,0.155762,1.572021,0.263916
17:25:13,-0.067139,1.50415,0.043213
17:25:13,-0.142578,1.111328,0.447021
17:25:13,-0.105713,0.704102,0.797363
17:25:13,0.07959,0.447998,0.842285
17:25:13,0.302246,0.306396,0.710938
17:25:13,0.591064,0.258789,0.673584
17:25:13,1.030518,0.270508,0.777832
17:25:13,1.391846,0.30542,0.553467
17:25:13,2.02832,0.292969,0.280273
17:25:13,2.864502,0.031982,-0.085449
17:25:13,2.773438,-0.383057,-0.362549
17:25:13,2.155762,-0.619873,-0.061035
17:25:13,2.00415,-0.704346,0.178955
17:25:13,1.784424,-0.763672,0.344727
17:25:13,2.054199,-0.623535,0.320801
17:25:13,3.371094,-0.07959,-0.687744
17:25:13,3.936035,0.516846,-2.182373
17:25:13,3.672119,0.61084,-2.114746
17:25:13,2.976074,0.714844,-2.501709
17:25:13,2.526855,0.925293,-3.133545
17:25:13,2.12915,0.884521,-3.254639
17:25:13,1.694336,0.780762,-3.609863
17:25:13,1.483887,0.436279,-3.671143
17:25:13,1.487793,0.165039,-3.197266
17:25:13,1.427734,0.138184,-3.30249
17:25:13,0.462646,0.443359,-4.721191
17:25:13,-0.272949,0.254395,-2.888184
17:25:13,4.07959,-1.403809,4.671875
17:25:13,1.647217,-1.549072,0.907227
17:25:13,3.026855,-3.733398,1.498291
17:25:13,4.446533,-3.586914,1.748779
17:25:13,2.272949,-1.533447,-1.991455
17:25:13,2.484619,-0.795898,-1.041748
17:25:13,2.76709,-0.551514,0.764404
17:25:13,1.593506,-0.094482,0.079102
17:25:13,1.063721,0.133057,-0.05957
17:25:13,0.903564,0.155762,0.467041
17:25:13,0.558838,0.129395,0.606689
17:25:13,0.328613,0.136719,0.654053
17:25:13,0.256592,0.154297,0.873291
17:25:13,0.234131,0.172607,0.9646
17:25:13,0.346191,0.253174,0.74707
17:25:13,0.62207,0.317139,0.601563
17:25:13,0.818359,0.304443,0.571777
17:25:13,0.840576,0.217285,0.549316
17:25:13,0.812744,0.085938,0.606445
17:25:13,0.705811,-0.023926,0.657715
17:25:13,0.61084,-0.073242,0.734863
17:25:13,0.614746,-0.092041,0.754639
17:25:13,0.696289,-0.04126,0.597168
17:25:13,0.767822,0.000732,0.544678
17:25:13,0.78125,-0.014893,0.530762
17:25:13,0.753174,-0.05835,0.577881
17:25:13,0.706543,-0.102783,0.531982
17:25:13,0.703857,-0.145752,0.56665
17:25:13,0.689697,-0.205078,0.643799
17:25:13,0.673584,-0.256836,0.558594
17:25:13,0.760498,-0.279541,0.488281
17:25:13,0.87207,-0.281982,0.491455
17:25:13,0.902832,-0.29248,0.516602
17:25:13,0.865723,-0.244385,0.502441
17:25:13,0.814209,-0.137939,0.45166
17:25:13,0.766602,-0.044922,0.421631
17:25:13,0.721191,0.026123,0.48877
17:25:13,1.115967,0.064453,0.522217
17:25:13,1.24292,0.060303,0.35083
17:25:13,0.879395,0.02832,0.359863
17:25:13,0.770996,0.014648,0.550293
17:25:13,0.729736,0.047363,0.626953
17:25:13,0.415771,0.048096,0.731445
17:25:13,0.135254,0.065186,0.743164
17:25:13,0.556885,0.364258,0.651367
17:25:13,1.165527,0.663818,0.577881
17:25:13,0.722168,0.165039,1.144043
17:25:13,-0.160889,-0.4646,2.362793
17:25:13,0.449219,0.209229,1.481445
17:25:13,1.655029,1.194092,0.811279
17:25:13,1.664551,0.848633,0.955078
17:25:13,2.172363,1.048096,0.849854
17:25:13,1.912354,0.314697,0.365723
17:25:13,5.583984,1.182861,-0.766357
17:25:13,7.897217,1.383057,0.382813
17:25:13,7.870117,0.249268,0.706543
17:25:14,3.214355,-0.258301,1.409424
17:25:14,1.366455,-0.365967,1.894043
17:25:14,0.745361,-0.241211,1.54248
17:25:14,0.339844,0.085205,0.939209
17:25:14,0.058838,0.476807,0.498291
17:25:14,0.086426,0.817871,0.454834
17:25:14,0.560791,1.687012,0.375977
17:25:14,0.268555,1.959229,-0.452637
17:25:14,-0.072754,1.524658,-0.33374
17:25:14,-0.04248,0.931641,0.533691
17:25:14,0.053223,0.509033,0.861572
17:25:14,0.282227,0.386719,0.799561
17:25:14,0.709229,0.471436,0.862305
17:25:14,1.291016,0.669434,0.908936
17:25:14,1.658691,0.751953,0.494629
17:25:14,1.981934,0.694824,0.105957
17:25:14,2.702148,0.540283,0.146729
17:25:14,2.947754,0.209473,0.033691
17:25:14,2.679199,-0.085205,-0.166992
17:25:14,3.20874,-0.256836,-0.197021
17:25:14,3.212158,-0.255371,-0.781494
17:25:14,3.270752,-0.21167,-1.034424
17:25:14,3.467773,-0.026367,-1.436279
17:25:14,3.341064,0.190186,-1.811279
17:25:14,2.94043,0.457031,-2.09375
17:25:14,2.637695,0.674316,-2.60083
17:25:14,2.500977,0.89917,-3.322266
17:25:14,2.08667,0.9375,-3.893311
17:25:14,1.593018,0.687256,-3.638672
17:25:14,1.44165,0.442383,-3.172852
17:25:14,2.010254,0.324463,-2.942627
17:25:14,3.039307,0.321045,-2.772705
17:25:14,2.076172,0.155273,-1.491943
17:25:14,0.561768,0.153076,-0.512695
17:25:14,0.502441,-0.110352,1.149658
17:25:14,-0.308105,-0.64917,0.02417
17:25:14,-1.654297,-2.157471,0.865479
17:25:14,1.452148,-3.097656,4.982178
17:25:14,4.132568,-2.605957,4.541992
17:25:14,1.626465,-0.769043,-2.778809
17:25:14,3.914307,0.001465,-3.16748
17:25:14,6.422119,-0.101318,0.541992
17:25:14,2.32373,0.18335,-0.674805
17:25:14,0.484863,-0.196777,-0.097656
17:25:14,0.447998,-0.242676,0.959717
17:25:14,0.209229,-0.173096,1.092529
17:25:14,-0.123779,-0.107178,0.968018
17:25:14,-0.370605,-0.010498,1.030273
17:25:14,-0.372803,0.077881,0.977539
17:25:14,-0.044434,0.304199,0.806396
17:25:14,0.496338,0.475098,0.79834
17:25:14,0.798096,0.591553,0.648193
17:25:14,0.806885,0.591064,0.393555
17:25:14,0.924072,0.52417,0.473877
17:25:14,0.875977,0.360596,0.577393
17:25:14,0.655029,0.197021,0.631592
17:25:14,0.500488,0.102539,0.814453
17:25:14,0.39624,0.049561,0.83667
17:25:14,0.395996,0.064209,0.772461
17:25:14,0.561768,0.028076,0.667236
17:25:14,0.704102,0.001465,0.571045
17:25:14,0.798828,-0.072266,0.580078
17:25:14,0.82373,-0.181885,0.61792
17:25:14,0.780273,-0.268066,0.561523
17:25:14,0.752441,-0.342041,0.495361
17:25:14,0.801514,-0.429932,0.533203
17:25:14,0.839111,-0.474365,0.582275
17:25:14,0.862305,-0.418945,0.556396
17:25:14,0.892578,-0.303955,0.57666
17:25:14,0.828613,-0.156738,0.564453
17:25:14,0.733154,-0.018555,0.492676
17:25:14,0.705322,0.077148,0.52124
17:25:14,0.666504,0.163574,0.539063
17:25:14,0.5625,0.236084,0.462646
17:25:14,0.593018,0.234375,0.553711
17:25:14,1.215088,0.155518,0.756592
17:25:14,1.628662,0.156982,0.424805
17:25:14,0.584229,0.17334,0.072998
17:25:14,0.242432,0.209717,0.641113
17:25:14,0.587402,0.296143,1.216309
17:25:14,0.656982,0.098145,1.319336
17:25:14,0.03125,-0.303955,2.783936
17:25:14,0.142822,0.326904,2.050293
17:25:14,0.888428,1.082275,0.037598
17:25:14,1.439209,1.180664,0.38623
17:25:14,2.249512,0.995117,0.688721
17:25:14,1.609619,0.169678,0.471436
17:25:14,4.411377,0.932617,0.053955
17:25:14,7.565918,1.486084,-0.828125
17:25:14,7.999756,0.929199,0.832031
17:25:14,4.471924,0.211426,1.175781
17:25:14,1.529297,-0.068848,1.423828
17:25:14,0.781738,0.005371,1.386475
17:25:14,0.285645,0.272705,0.688232
17:25:14,-0.061035,0.529297,0.369873
17:25:14,-0.103027,0.905518,0.489258
17:25:14,0.070801,1.396484,0.344482
17:25:14,-0.154053,1.509766,-0.150146
17:25:14,-0.571289,1.254883,0.014404
17:25:14,-0.636963,0.940186,0.626221
17:25:15,-0.385986,0.634277,0.597168
17:25:15,0.077637,0.461426,0.567871
17:25:15,0.463379,0.425293,0.999023
17:25:15,0.836426,0.465088,1.158203
17:25:15,1.147461,0.521729,0.8396
17:25:15,1.516846,0.575439,0.560303
17:25:15,1.976318,0.580322,0.427979
17:25:15,2.651367,0.518311,0.414307
17:25:15,3.621826,0.262451,0.165283
17:25:15,3.414307,-0.147217,-0.68042
17:25:15,2.591064,-0.403564,-0.691895
17:25:15,2.396484,-0.388184,-0.388672
17:25:15,3.091064,-0.212891,-0.543945
17:25:15,3.206299,0.018311,-1.15918
17:25:15,3.099609,0.533691,-1.846924
17:25:15,2.994385,1.282471,-2.611328
17:25:15,2.77832,1.451172,-3.133545
17:25:15,2.250732,1.5625,-3.76001
17:25:15,1.86499,1.147461,-3.85376
17:25:15,1.804932,0.557861,-3.227051
17:25:15,1.125488,0.483398,-3.69043
17:25:15,0.096191,0.696045,-5.189453
17:25:15,-0.033447,0.427246,-2.957764
17:25:15,4.470703,-1.067871,3.698975
17:25:15,3.052979,-1.805908,1.518066
17:25:15,4.55542,-4.316406,0.480225
17:25:15,6.201172,-3.969482,1.212646
17:25:15,1.52832,-0.608154,-1.338867
17:25:15,0.862061,-0.343262,0.20874
17:25:15,1.799561,-0.317139,1.362549
17:25:15,1.741211,0.264648,0.434082
17:25:15,1.253662,0.615967,-0.266113
17:25:15,1.165771,0.766846,0.081299
17:25:15,0.929932,0.655762,0.554199
17:25:15,0.566406,0.524414,0.632568
17:25:15,0.316406,0.39917,0.76416
17:25:15,0.205078,0.275146,0.910645
17:25:15,0.16626,0.217285,0.877441
17:25:15,0.377197,0.117188,0.754639
17:25:15,0.673584,0.106445,0.713623
17:25:15,0.828613,0.046387,0.624268
17:25:15,0.887207,-0.01123,0.547852
17:25:15,0.938965,-0.084961,0.588379
17:25:15,0.87915,-0.14917,0.615723
17:25:15,0.744385,-0.177002,0.689697
17:25:15,0.654053,-0.131348,0.743652
17:25:15,0.60498,-0.040771,0.650391
17:25:15,0.650879,0.031494,0.612549
17:25:15,0.702393,0.081787,0.57666
17:25:15,0.688232,0.043945,0.612061
17:25:15,0.653564,-0.010498,0.673828
17:25:15,0.620605,-0.067139,0.712646
17:25:15,0.585938,-0.122803,0.661133
17:25:15,0.619873,-0.162842,0.616211
17:25:15,0.729492,-0.179443,0.579102
17:25:15,0.823486,-0.1604,0.536865
17:25:15,0.859131,-0.12915,0.469238
17:25:15,0.856934,-0.08374,0.358643
17:25:15,0.881104,-0.02124,0.356689
17:25:15,0.903076,0.012207,0.414795
17:25:15,0.833496,0.018799,0.443848
17:25:15,0.751953,0.010498,0.530762
17:25:15,0.6875,0.000732,0.557861
17:25:15,0.584473,0.020264,0.516846
17:25:15,0.374512,0.028564,0.580811
17:25:15,0.452881,0.080566,0.618896
17:25:15,0.808105,0.415039,0.494141
17:25:15,1.37085,0.826172,0.330078
17:25:15,0.976318,0.576416,0.066895
17:25:15,1.060059,0.177979,0.532227
17:25:15,1.375488,-0.309814,2.214844
17:25:15,-0.1875,-0.719971,2.236084
17:25:15,1.195068,0.064209,1.410645
17:25:15,1.1521,0.255859,0.294189
17:25:15,2.000977,0.304443,0.756104
17:25:15,3.71167,0.674316,-1.1875
17:25:15,6.456055,1.190186,-2.238525
17:25:15,7.999756,0.800537,1.286621
17:25:15,6.312256,0.264404,2.14917
17:25:15,3.043213,0.061523,1.848633
17:25:15,1.349365,0.054199,1.642578
17:25:15,0.70752,0.220215,1.088623
17:25:15,0.341553,0.518066,0.634277
17:25:15,0.467041,1.153564,0.532471
17:25:15,0.491211,1.696533,0.287354
17:25:15,0.083252,1.637207,-0.122803
17:25:15,-0.125244,1.23999,0.075195
17:25:15,-0.137695,0.783203,0.487793
17:25:15,-0.019043,0.471191,0.692383
17:25:15,0.23291,0.32251,0.738525
17:25:15,0.533203,0.268555,0.715088
17:25:15,0.952148,0.260986,0.823975
17:25:15,1.458008,0.371582,0.80835
17:25:15,1.849365,0.460693,0.418213
17:25:15,2.338623,0.493164,0.170898
17:25:15,2.680908,0.320801,0.094238
17:25:15,2.414795,-0.016113,0.387207
17:25:15,2.538574,-0.288818,0.322266
17:25:15,2.819092,-0.404541,0.061523
17:25:16,3.072266,-0.380371,-0.542969
17:25:16,3.259033,-0.313477,-0.945801
17:25:16,3.392822,-0.202637,-1.245361
17:25:16,3.310303,0.095947,-1.7146
17:25:16,3.028809,0.356445,-2.185547
17:25:16,2.637939,0.579834,-2.758789
17:25:16,2.369385,0.76709,-3.449951
17:25:16,2.185303,0.822266,-3.905518
17:25:16,1.80957,0.741943,-3.627686
17:25:16,1.529541,0.614746,-3.302002
17:25:16,2.09668,0.491455,-3.151855
17:25:16,1.958252,0.436523,-3.200439
17:25:16,0.2229,0.398193,-3.0271
17:25:16,0.342773,0.048096,-0.520508
17:25:16,1.205811,-0.75708,1.618652
17:25:16,0.126709,-1.642334,0.945557
17:25:16,3.407715,-4.126465,3.867676
17:25:16,5.994873,-4.686035,4.406982
17:25:16,1.778076,-0.860352,-3.126709
17:25:16,3.278076,-0.29248,-2.529541
17:25:16,4.192139,-0.299561,1.004883
17:25:16,1.638428,0.166748,-0.588135
17:25:16,0.877441,0.115479,0.140869
17:25:16,0.645508,0.149414,0.690918
17:25:16,0.282959,0.199707,0.684814
17:25:16,0.088379,0.275146,0.637207
17:25:16,0.046875,0.33374,0.858154
17:25:16,0.110352,0.408203,0.968018
17:25:16,0.177979,0.556152,0.791016
17:25:16,0.453857,0.654297,0.588135
17:25:16,0.69873,0.61499,0.609375
17:25:16,0.722168,0.448242,0.550781
17:25:16,0.72583,0.266846,0.579102
17:25:16,0.674561,0.07666,0.622559
17:25:16,0.619873,-0.049561,0.695801
17:25:16,0.59082,-0.138672,0.761475
17:25:16,0.602783,-0.176758,0.762939
17:25:16,0.667236,-0.152344,0.664307
17:25:16,0.756348,-0.135498,0.598145
17:25:16,0.798096,-0.147461,0.579102
17:25:16,0.807129,-0.162354,0.584961
17:25:16,0.772217,-0.185791,0.589355
17:25:16,0.695801,-0.218506,0.62207
17:25:16,0.654541,-0.250977,0.62915
17:25:16,0.696533,-0.279541,0.577148
17:25:16,0.78833,-0.27417,0.550049
17:25:16,0.849121,-0.240479,0.516357
17:25:16,0.87085,-0.193848,0.455078
17:25:16,0.866699,-0.114502,0.378174
17:25:16,0.851807,-0.059326,0.402588
17:25:16,0.860352,-0.019043,0.544678
17:25:16,0.733154,0.005859,0.561768
17:25:16,0.610352,0.02002,0.529297
17:25:16,0.570068,0.026855,0.585205
17:25:16,0.803955,-0.013184,0.728271
17:25:16,0.437744,0.066406,0.493408
17:25:16,0.34375,0.109131,0.531006
17:25:16,0.404053,0.16626,0.544678
17:25:16,1.288086,0.716553,0.607422
17:25:16,1.220947,0.689941,0.317383
17:25:16,1.46167,0.547119,0.369141
17:25:16,1.199951,-0.184814,2.23877
17:25:16,0.280518,-0.635742,2.194092
17:25:16,0.940918,-0.104004,1.039063
17:25:16,1.92627,-0.167236,1.084229
17:25:16,2.835693,0.272217,-1.321777
17:25:16,5.807129,1.074707,-2.196533
17:25:16,7.999756,1.351563,0.883789
17:25:16,7.027344,0.717041,2.17627
17:25:16,3.675781,0.150146,1.843506
17:25:16,1.523438,0.087891,1.722656
17:25:16,0.819092,0.200195,1.281494
17:25:16,0.365479,0.422852,0.783691
17:25:16,0.304199,1.001221,0.589844
17:25:16,0.416748,1.682129,0.501465
17:25:16,0.094971,1.702637,-0.028809
17:25:16,-0.191406,1.331055,-0.006592
17:25:16,-0.212891,0.833496,0.490723
17:25:16,-0.119385,0.485107,0.762695
17:25:16,0.071777,0.319092,0.793945
17:25:16,0.328125,0.309082,0.748047
17:25:16,0.746338,0.36377,0.907471
17:25:16,1.278076,0.502686,0.936279
17:25:16,1.596191,0.565186,0.467529
17:25:16,1.886719,0.526855,0.120361
17:25:16,2.677979,0.380859,0.311768
17:25:16,2.809082,-0.040283,0.178467
17:25:16,2.794434,-0.478027,0.179443
17:25:16,2.836426,-0.59668,0.090576
17:25:16,3.020264,-0.565674,-0.190674
17:25:16,2.918457,-0.269287,-0.570068
17:25:16,3.007568,0.012207,-0.94873
17:25:16,3.014648,0.397949,-1.507813
17:25:16,2.854004,0.932129,-2.143066
17:25:16,2.747803,1.539551,-2.693359
17:25:16,2.678955,1.681152,-3.087891
17:25:16,2.499268,1.175537,-3.279053
17:25:16,2.14917,0.640137,-3.518311
17:25:16,1.880859,0.302979,-3.585693
17:25:16,2.036377,-0.104492,-2.928955
17:25:16,0.956787,0.049072,-3.638184
17:25:17,-0.822266,0.452148,-4.355225
17:25:17,0.652344,0.124512,-0.518311
17:25:17,3.076172,-1.368896,2.641602
17:25:17,3.31543,-4.248047,1.158447
17:25:17,4.841797,-5.476807,0.457031
17:25:17,4.678223,-2.964111,-0.939209
17:25:17,1.169922,-0.752441,-1.48291
17:25:17,1.519287,-0.832031,0.707275
17:25:17,1.868652,-0.388672,0.733643
17:25:17,1.23291,0.12793,-0.205566
17:25:17,1.067139,0.322266,0.027588
17:25:17,0.912598,0.39624,0.427979
17:25:17,0.569336,0.422852,0.472412
17:25:17,0.380859,0.466553,0.649658
17:25:17,0.262939,0.525635,0.802246
17:25:17,0.111572,0.56958,0.862061
17:25:17,0.187256,0.636475,0.807617
17:25:17,0.47876,0.633057,0.638428
17:25:17,0.70166,0.507813,0.580811
17:25:17,0.775879,0.31543,0.5625
17:25:17,0.799561,0.121338,0.566406
17:25:17,0.780273,-0.033936,0.600342
17:25:17,0.74707,-0.139404,0.678223
17:25:17,0.714111,-0.226807,0.724121
17:25:17,0.688477,-0.266846,0.708252
17:25:17,0.692383,-0.26709,0.65332
17:25:17,0.710938,-0.271729,0.651611
17:25:17,0.732178,-0.25,0.689209
17:25:17,0.720215,-0.185547,0.612793
17:25:17,0.713379,-0.137451,0.584961
17:25:17,0.686279,-0.148926,0.63208
17:25:17,0.643066,-0.181885,0.594727
17:25:17,0.700928,-0.191895,0.610352
17:25:17,0.731201,-0.179443,0.538818
17:25:17,0.79248,-0.148682,0.430908
17:25:17,0.885742,-0.136719,0.438721
17:25:17,0.927734,-0.116699,0.454834
17:25:17,0.898682,-0.0625,0.452393
17:25:17,0.848877,0.011475,0.455566
17:25:17,0.788574,0.052979,0.492188
17:25:17,0.726807,0.097168,0.564697
17:25:17,0.60791,0.140869,0.546387
17:25:17,0.510986,0.17041,0.499512
17:25:17,0.784668,0.183838,0.570313
17:25:17,0.446533,0.234863,0.350586
17:25:17,0.361816,0.171387,0.499756
17:25:17,0.529297,0.211914,0.57251
17:25:17,1.14624,0.525879,0.536865
17:25:17,1.036865,0.608398,0.111816
17:25:17,1.450684,0.256592,0.236816
17:25:17,1.957764,-0.399658,1.473145
17:25:17,0.303955,-0.657471,2.386719
17:25:17,0.469971,-0.122559,1.457031
17:25:17,1.665771,-0.019287,0.831055
17:25:17,2.038818,-0.226074,0.523682
17:25:17,3.933838,0.515625,-1.962402
17:25:17,6.600098,1.366211,-1.739258
17:25:17,7.999756,1.160645,1.570068
17:25:17,6.757813,0.488281,2.1604
17:25:17,2.890625,0.161377,1.42627
17:25:17,1.302979,0.167725,1.28125
17:25:17,0.719727,0.244141,0.987549
17:25:17,0.312744,0.442871,0.52417
17:25:17,0.07373,0.677979,0.226563
17:25:17,0.065674,1.044189,0.345703
17:25:17,0.214111,1.4646,0.326416
17:25:17,-0.067871,1.429443,-0.010254
17:25:17,-0.092041,1.128662,0.329834
17:25:17,-0.003906,0.755615,0.714111
17:25:17,0.12207,0.50415,0.718018
17:25:17,0.404053,0.421875,0.671875
17:25:17,0.797363,0.449951,0.705566
17:25:17,1.219238,0.498535,0.623047
17:25:17,1.472412,0.479248,0.28833
17:25:17,1.844971,0.423828,0.231934
17:25:17,2.269531,0.242188,0.096436
17:25:17,2.189941,-0.032715,0.124268
17:25:17,2.428223,-0.24585,0.094971
17:25:17,2.853027,-0.401855,-0.192139
17:25:17,3.060303,-0.425049,-0.60083
17:25:17,3.015381,-0.354004,-0.864502
17:25:17,3.125977,-0.160645,-1.149414
17:25:17,3.208496,0.135498,-1.565186
17:25:17,3.004639,0.388672,-1.912842
17:25:17,2.673584,0.59668,-2.236084
17:25:17,2.502197,0.828125,-2.722412
17:25:17,2.270996,0.974854,-3.380371
17:25:17,1.679443,0.786133,-3.611328
17:25:17,1.162598,0.365234,-3.30249
17:25:17,1.190186,0.087646,-2.774902
17:25:17,1.403076,0.147705,-2.607422
17:25:17,0.569336,0.532471,-3.752197
17:25:17,-0.370605,0.512939,-2.639893
17:25:17,1.61499,-0.416992,1.967773
17:25:17,2.854736,-1.69043,3.244873
17:25:17,1.841797,-2.366699,0.537598
17:25:17,6.427979,-4.507324,3.441406
17:25:17,2.157959,-1.061523,-3.04541
17:25:17,3.026123,-0.708496,-1.266846
17:25:17,2.803223,-0.801514,1.219971
