Time,Accel-X (g), Accel-Y (g), Accel-Z (g)
15:14:17,2.162109,-0.48877,0.039551
15:14:17,1.164307,-0.362793,-0.304199
15:14:17,1.010742,-0.382813,0.22876
15:14:17,0.773193,-0.395264,0.708984
15:14:17,0.540771,-0.275146,0.826416
15:14:17,0.399902,-0.130859,0.574463
15:14:17,0.606689,-0.26123,0.554688
15:14:17,1.049561,-0.413574,0.494629
15:14:17,0.984619,-0.293701,0.27832
15:14:17,0.931885,-0.069092,0.318115
15:14:17,0.909424,0.09375,0.420654
15:14:17,0.912842,0.340332,0.416016
15:14:17,1.001953,0.65918,0.227051
15:14:17,0.909424,0.633301,0.043213
15:14:17,0.979736,0.175537,0.23291
15:14:17,1.039307,-0.086426,0.41748
15:14:17,0.79248,-0.021484,0.400879
15:14:17,0.782715,-0.025391,0.472412
15:14:17,0.836426,0.008789,0.424072
15:14:17,0.899414,0.051025,0.316895
15:14:17,0.986816,0.140381,0.2854
15:14:17,0.880859,0.217529,0.286621
15:14:17,0.825684,0.187988,0.340332
15:14:17,0.884033,0.07666,0.377686
15:14:17,0.926025,0.029297,0.355957
15:14:17,0.938477,0.06543,0.325684
15:14:17,0.953125,0.109375,0.296631
15:14:17,0.968506,0.094971,0.280762
15:14:17,0.954102,0.065186,0.309326
15:14:17,0.952881,0.044189,0.329346
15:14:17,0.95459,0.091797,0.294922
15:14:17,0.945557,0.059814,0.343994
15:14:17,0.895752,0.022461,0.37793
15:14:17,0.925049,0.006592,0.43042
15:14:17,0.858398,-0.016357,0.503662
15:14:17,0.810791,-0.062988,0.513672
15:14:17,0.783447,-0.091797,0.485352
15:14:17,0.945313,-0.072266,0.437012
15:14:17,0.962646,-0.174805,0.412598
15:14:17,0.830811,-0.286865,0.413574
15:14:17,0.927246,-0.259033,0.318848
15:14:17,-0.884766,-1.130859,1.764648
15:14:17,-0.724121,-0.45459,1.976318
15:14:17,1.305664,0.968506,-0.29834
15:14:17,1.366699,0.9021,-0.494141
15:14:17,2.31543,1.417725,0.595215
15:14:17,1.446777,0.473389,1.348145
15:14:17,1.826172,0.577637,1.625244
15:14:17,1.562988,0.501709,1.123535
15:14:17,1.702637,1.014893,-0.766846
15:14:17,5.930176,2.704346,-1.40332
15:14:17,7.999756,0.238525,-1.029053
15:14:17,5.680664,0.121338,-1.791748
15:14:17,3.047607,0.403076,0.436279
15:14:17,2.228027,0.486816,1.409912
15:14:17,1.580811,1.02417,1.36084
15:14:17,0.687256,1.199463,0.004395
15:14:17,0.092041,1.120117,-1.360352
15:14:17,-0.099121,1.298828,-1.424072
15:14:17,-0.107178,1.134033,-0.968018
15:14:17,-0.088867,0.705322,-0.272461
15:14:17,-0.455078,0.419678,0.12085
15:14:17,-0.800537,0.299561,0.232422
15:14:17,-0.877197,0.256348,0.401611
15:14:17,-0.376465,0.571045,0.340332
15:14:17,0.24707,1.115723,0.247314
15:14:17,0.611328,1.365479,0.099609
15:14:17,0.809082,1.280518,0.065186
15:14:17,0.953125,1.195313,0.234619
15:14:17,1.067139,1.155762,0.378662
15:14:17,1.186035,1.140869,0.455566
15:14:17,1.363525,1.22583,0.486084
15:14:17,1.573486,1.375,0.481445
15:14:17,1.803711,1.607666,0.40918
15:14:17,2.00415,1.864502,0.206543
15:14:17,2.05835,1.982422,-0.200928
15:14:17,2.00415,1.944336,-0.685791
15:14:17,2.108887,1.720215,-1.147461
15:14:17,3.044678,1.508789,-1.600586
15:14:17,4.300537,0.68335,-1.979736
15:14:17,2.473877,0.009521,-5.10083
15:14:17,2.103271,-0.421143,-4.360352
15:14:17,0.760254,-0.327148,-3.294922
15:14:17,0.102783,-0.093994,-3.719482
15:14:17,0.394043,-0.26416,-4.186768
15:14:17,1.157715,-1.01001,-4.115234
15:14:17,1.357422,-1.416504,-3.078369
15:14:17,0.37207,-0.630859,-1.533447
15:14:17,-0.151367,-0.512207,-0.772705
15:14:17,1.313477,0.914307,0.003662
15:14:17,1.140137,0.422119,0.859863
15:14:17,-0.005615,-0.374268,0.660645
15:14:17,1.591309,0.320801,1.046631
15:14:17,5.009277,2.685791,2.153809
15:14:17,2.374756,1.493896,0.079102
15:14:17,-0.323242,0.849609,-1.95166
15:14:17,2.826904,1.173096,-0.664551
15:14:17,4.283936,-0.43042,0.155518
15:14:17,1.866211,-0.716309,-0.382813
15:14:17,0.607178,-0.333252,-0.07373
15:14:18,0.955078,-0.522949,0.734375
15:14:18,0.756592,-0.429688,1.03125
15:14:18,0.391113,-0.338867,0.741211
15:14:18,0.29834,-0.330322,0.45166
15:14:18,0.527832,-0.399414,0.491943
15:14:18,1.023926,-0.585205,0.655518
15:14:18,1.01001,-0.4021,0.273438
15:14:18,0.820801,-0.256592,0.244873
15:14:18,0.92627,-0.131104,0.417725
15:14:18,0.907471,0.109131,0.400391
15:14:18,0.968994,0.297607,0.249512
15:14:18,1.239258,0.724365,0.164307
15:14:18,0.828857,0.600586,-0.002686
15:14:18,0.794922,0.459229,0.172607
15:14:18,0.77002,0.20752,0.435303
15:14:18,0.732666,0.039551,0.499268
15:14:18,0.972412,-0.132568,0.433838
15:14:18,1.070557,-0.150879,0.248291
15:14:18,0.969482,-0.096924,0.23291
15:14:18,0.950439,0.0896,0.394775
15:14:18,0.840088,0.209717,0.375244
15:14:18,0.791748,0.203857,0.302979
15:14:18,0.924561,0.055176,0.343994
15:14:18,1.021484,-0.050049,0.3396
15:14:18,1.013428,-0.015381,0.298584
15:14:18,0.949219,0.043457,0.341309
15:14:18,0.866943,0.068848,0.386963
15:14:18,0.880127,0.06665,0.364014
15:14:18,0.962646,0.049561,0.332275
15:14:18,0.964355,-0.005127,0.328613
15:14:18,0.929199,-0.041504,0.350342
15:14:18,0.919189,-0.052002,0.396484
15:14:18,0.888428,-0.067139,0.473877
15:14:18,0.812744,-0.081543,0.504883
15:14:18,0.793701,-0.103516,0.471191
15:14:18,0.825439,-0.133545,0.400391
15:14:18,0.928223,-0.047119,0.426758
15:14:18,0.900146,-0.146729,0.489258
15:14:18,0.734619,-0.234131,0.577637
15:14:18,0.389404,-0.354736,0.812256
15:14:18,-0.656006,-1.348633,2.432861
15:14:18,1.19165,0.562744,0.447998
15:14:18,2.015869,1.198975,0.323242
15:14:18,1.495361,0.779053,1.184814
15:14:18,0.963379,0.449463,1.029785
15:14:18,1.634277,0.506104,1.096924
15:14:18,1.38623,0.891602,1.23877
15:14:18,3.463379,2.74585,-0.461182
15:14:18,7.543945,4.57666,-0.049072
15:14:18,7.003662,2.615967,-1.514893
15:14:18,3.845215,0.899902,-1.37915
15:14:18,2.260742,0.660156,0.922119
15:14:18,1.490723,0.257813,1.480713
15:14:18,0.807617,0.178711,1.133301
15:14:18,0.380371,0.139893,0.52124
15:14:18,0.150635,0.032959,0.049072
15:14:18,0.135498,0.053223,0.148193
15:14:18,0.405518,0.333008,0.453125
15:14:18,0.597412,0.560303,0.42627
15:14:18,0.452148,0.589844,0.128662
15:14:18,0.459961,0.673584,-0.023193
15:14:18,0.635254,0.922607,0.010254
15:14:18,0.728027,1.087891,-0.074463
15:14:18,0.679199,1.067871,-0.223145
15:14:18,0.642578,0.935303,-0.238525
15:14:18,0.724121,0.787842,-0.017334
15:14:18,0.811768,0.672119,0.186523
15:14:18,0.922852,0.665527,0.317383
15:14:18,1.179443,0.817871,0.472412
15:14:18,1.465576,1.012695,0.518799
15:14:18,1.649658,1.160645,0.339844
15:14:18,2.268066,1.40918,0.131348
15:14:18,2.593506,1.35376,-0.325439
15:14:18,3.096924,1.013672,-0.647217
15:14:18,4.726563,-0.231934,-1.100586
15:14:18,4.147461,-0.833008,-2.362305
15:14:18,3.177246,-0.988281,-2.326904
15:14:18,2.101563,-0.38501,-1.859863
15:14:18,0.801758,0.233887,-2.240479
15:14:18,0.488281,0.727539,-3.348877
15:14:18,0.664063,0.780518,-4.293945
15:14:18,1.08374,0.018066,-4.475342
15:14:18,1.322021,-0.561279,-4.293213
15:14:18,0.591309,-0.618408,-3.692627
15:14:18,-0.078125,-0.451172,-2.413818
15:14:18,-0.246582,-0.202637,-1.534912
15:14:18,0.098145,-0.03125,-0.745361
15:14:18,1.454834,-0.312012,2.26123
15:14:18,1.786865,-0.914307,3.448242
15:14:18,2.172119,-0.671143,0.722412
15:14:18,5.419434,0.662598,0.834473
15:14:18,5.175537,0.812256,-0.512939
15:14:18,1.369385,-0.501953,-3.600098
15:14:18,4.310303,0.226563,-0.916748
15:14:18,1.515137,-0.170654,-0.227051
15:14:18,0.946533,-0.038086,0.845215
15:14:18,0.793457,-0.012939,1.368408
15:14:18,0.515137,-0.05835,0.879639
15:14:18,0.314941,-0.053223,0.499023
15:14:18,0.295166,-0.022705,0.366699
15:14:19,0.357178,-0.006348,0.436523
15:14:19,0.476318,0.019531,0.614746
15:14:19,0.548584,0.046143,0.612305
15:14:19,0.703613,0.104492,0.569824
15:14:19,0.835938,0.190674,0.423828
15:14:19,1.597168,-0.150391,0.334229
15:14:19,1.613525,0.100586,-0.110352
15:14:19,1.063965,0.464111,-0.233643
15:14:19,0.939209,0.29541,0.213379
15:14:19,0.843262,0.121094,0.542969
15:14:19,0.692871,0.031006,0.598877
15:14:19,0.594971,0.029053,0.467773
15:14:19,0.736084,-0.025879,0.419189
15:14:19,1.022217,-0.075684,0.377441
15:14:19,1.037354,0.039063,0.259033
15:14:19,0.940918,0.175537,0.287354
15:14:19,0.909424,0.255859,0.320801
15:14:19,0.830566,0.169678,0.359619
15:14:19,0.935303,0.084473,0.403809
15:14:19,0.957764,-0.027344,0.339844
15:14:19,0.965576,-0.032227,0.362061
15:14:19,0.903564,-0.030273,0.391357
15:14:19,0.875,-0.000244,0.390381
15:14:19,0.887451,0.014404,0.407959
15:14:19,0.946045,0.027832,0.352783
15:14:19,0.987061,0.060303,0.290283
15:14:19,0.928223,0.054688,0.248291
15:14:19,0.945557,0.006104,0.273682
15:14:19,0.96875,0.010254,0.369141
15:14:19,0.882813,0.022949,0.490479
15:14:19,0.783936,-0.012939,0.533203
15:14:19,0.742432,-0.053223,0.536865
15:14:19,0.776123,-0.070313,0.522705
15:14:19,0.815186,-0.100586,0.445557
15:14:19,0.796387,-0.079834,0.394043
15:14:19,0.847412,-0.149658,0.543457
15:14:19,0.446289,-0.422119,0.896729
15:14:19,0.348633,-0.651611,1.601074
15:14:19,1.243164,0.118164,0.704346
15:14:19,2.169434,1.129639,-0.078857
15:14:19,2.046143,0.879883,1.311768
15:14:19,1.412842,0.454346,1.483154
15:14:19,1.817139,0.478516,1.924072
15:14:19,1.993408,0.883057,0.932617
15:14:19,3.933105,2.180664,-1.248291
15:14:19,6.611328,4.490967,-0.887695
15:14:19,6.466309,1.788574,-2.097656
15:14:19,3.672607,0.705811,-0.603516
15:14:19,2.108154,0.659668,0.897949
15:14:19,1.52002,0.366211,1.394043
15:14:19,0.697266,0.360352,0.915771
15:14:19,0.293457,0.242188,0.207275
15:14:19,0.005127,0.176025,-0.302246
15:14:19,-0.052246,0.151367,-0.251221
15:14:19,0.128662,0.338867,0.033936
15:14:19,0.399658,0.546143,0.346924
15:14:19,0.339844,0.510254,0.411865
15:14:19,0.231445,0.424316,0.336914
15:14:19,0.343262,0.647217,0.294678
15:14:19,0.540283,0.983154,0.255371
15:14:19,0.643311,1.157959,0.124756
15:14:19,0.66748,1.026855,0.087646
15:14:19,0.724121,0.785645,0.262207
15:14:19,0.8479,0.659424,0.483154
15:14:19,0.97998,0.644287,0.595459
15:14:19,1.152832,0.736328,0.635498
15:14:19,1.299561,0.937012,0.623779
15:14:19,2.32251,1.202881,0.709961
15:14:19,3.123535,1.449951,0.462158
15:14:19,2.525879,1.498291,-0.461914
15:14:19,4.10791,0.707764,-0.810303
15:14:19,5.236816,-0.615479,-1.405762
15:14:19,3.270264,-0.602295,-2.929199
15:14:19,3.033203,-0.585693,-1.885254
15:14:19,1.700439,0.338379,-1.774658
15:14:19,1.275879,0.770996,-2.633789
15:14:19,0.956299,1.009277,-3.962158
15:14:19,1.111084,0.075439,-4.024658
15:14:19,1.034668,-0.26001,-4.216797
15:14:19,0.719482,-0.507324,-4.246338
15:14:19,0.708984,-0.843506,-3.690918
15:14:19,-0.001465,-0.552002,-2.418701
15:14:19,-0.204102,-0.446045,-1.726563
15:14:19,-0.093994,-0.141113,-1.818115
15:14:19,1.978027,-0.161865,1.842041
15:14:19,1.425537,-0.731689,2.859619
15:14:19,1.561035,-1.005127,1.24585
15:14:19,6.081787,2.232666,1.570068
15:14:19,3.708496,1.452637,-0.792236
15:14:19,2.182861,-0.571533,-2.37085
15:14:19,3.739258,-0.305908,-1.035156
15:14:19,2.20166,-0.094482,-0.167969
15:14:19,0.686523,-0.179688,0.554199
15:14:19,0.743896,-0.086426,1.281738
15:14:19,0.585938,-0.018799,0.991455
15:14:19,0.356445,-0.024902,0.481445
15:14:19,0.310547,0.017578,0.337646
15:14:19,0.459961,0.099365,0.440918
15:14:19,0.645996,0.203125,0.614746
15:14:19,0.858887,0.31665,0.560059
15:14:20,1.085205,0.514404,0.277588
15:14:20,1.151611,0.607422,0.092285
15:14:20,0.936768,0.408203,-0.028076
15:14:20,1.039551,0.126465,0.337891
15:14:20,1.180908,-0.239014,0.581543
15:14:20,0.910889,-0.184326,0.371094
15:14:20,0.751221,-0.095215,0.420166
15:14:20,0.791016,-0.027344,0.529541
15:14:20,0.869873,0.162598,0.471924
15:14:20,0.86499,0.302979,0.301758
15:14:20,0.829102,0.30542,0.249023
15:14:20,0.848633,0.172852,0.371338
15:14:20,0.888916,0,0.468506
15:14:20,0.868896,-0.061523,0.425537
15:14:20,0.857422,-0.006348,0.406738
15:14:20,0.856934,0.092529,0.389893
15:14:20,0.869141,0.169434,0.3479
15:14:20,0.878662,0.159668,0.352539
15:14:20,0.861816,0.078125,0.398193
15:14:20,0.861572,0.023193,0.458008
15:14:20,0.94043,0.053955,0.463135
15:14:20,0.996826,0.077148,0.379883
15:14:20,0.982666,0.063232,0.283936
15:14:20,1,0.053223,0.271484
15:14:20,0.960693,0.015625,0.322754
15:14:20,0.89209,-0.004395,0.371094
15:14:20,0.936523,0.005127,0.473389
15:14:20,0.860107,-0.022949,0.563232
15:14:20,0.789551,-0.101074,0.583252
15:14:20,0.838867,-0.084473,0.486084
15:14:20,0.886719,-0.126221,0.483643
15:14:20,0.89209,-0.113037,0.505127
15:14:20,0.67627,-0.207275,0.602783
15:14:20,0.291504,-0.531006,1.022705
15:14:20,-1.361572,-1.421387,2.123779
15:14:20,1.899658,0.839844,1.157715
15:14:20,1.366943,0.605469,0.077148
15:14:20,1.873535,1.27002,0.560547
15:14:20,1.500977,0.50293,1.317627
15:14:20,1.432861,0.205078,1.706543
15:14:20,1.493896,-0.201172,1.259277
15:14:20,1.777344,0.619385,0.061035
15:14:20,6.757324,2.710449,1.373291
15:14:20,7.451416,1.74585,-2.101318
15:14:20,5.630371,1.109619,-2.659668
15:14:20,3.801025,1.281006,0.295166
15:14:20,1.872314,0.465576,1.067871
15:14:20,0.80835,0.27417,0.83374
15:14:20,0.41626,0.446533,0.504883
15:14:20,0.13916,0.154297,-0.507813
15:14:20,-0.218018,0.102295,-1.154541
15:14:20,-0.344971,0.243164,-0.806152
15:14:20,-0.090332,0.465576,-0.195557
15:14:20,0.181885,0.630371,0.2146
15:14:20,-0.020508,0.570557,0.41748
15:14:20,-0.455078,0.60498,0.421631
15:14:20,-0.437012,0.932861,0.254395
15:14:20,0.049561,1.282959,0.181641
15:14:20,0.514648,1.315918,0.273193
15:14:20,0.686523,0.868164,0.437256
15:14:20,0.830811,0.870117,0.648926
15:14:20,1.009766,0.829102,0.851807
15:14:20,1.242676,0.91748,0.981689
15:14:20,1.562744,1.157715,1.048096
15:14:20,1.904297,1.534912,0.993164
15:14:20,2.022705,1.728516,0.600586
15:14:20,2.032471,1.806152,0.101807
15:14:20,2.152344,1.849365,-0.30957
15:14:20,1.919434,1.671143,-0.783447
15:14:20,3.288086,1.284912,-0.986084
15:14:20,4.84375,-0.105225,-2.52002
15:14:20,3.67749,0.287109,-5.030273
15:14:20,1.481445,0.485107,-4.450195
15:14:20,0.092285,0.144775,-3.375732
15:14:20,-0.205078,0.11792,-3.990234
15:14:20,0.549316,-0.452637,-4.992432
15:14:20,1.265869,-1.370605,-5.065674
15:14:20,1.133301,-1.546143,-3.498047
15:14:20,0.354004,-0.769775,-1.876221
15:14:20,-0.106201,-0.462402,-0.690674
15:14:20,2.27124,-0.922607,2.368896
15:14:20,3.810547,-0.678711,3.648193
15:14:20,0.202637,-0.324219,0.142822
15:14:20,-0.431641,-0.453369,-1.134766
15:14:20,1.217773,1.397705,-1.237061
15:14:20,5.074707,5.959961,1.443359
15:14:20,1.762939,0.603027,0.374756
15:14:20,2.020264,1.694092,0.10791
15:14:20,1.922852,1.195557,-1.647949
15:14:20,4.095947,-0.966309,0.970947
15:14:20,2.026611,-0.759033,-0.749268
15:14:20,1.020752,-0.291016,-0.269531
15:14:20,0.831299,-0.219482,0.477539
15:14:20,0.681152,-0.218018,1.082764
15:14:20,0.451416,-0.215088,0.916748
15:14:20,0.2854,-0.236084,0.447021
15:14:20,0.343018,-0.259033,0.457275
15:14:20,1.132324,-0.572021,0.644531
15:14:20,1.123291,-0.455566,0.343262
15:14:20,0.810791,-0.284668,0.219971
15:14:21,0.855957,-0.168701,0.429199
15:14:21,0.8396,0.000977,0.476807
15:14:21,0.784668,0.164551,0.375732
15:14:21,0.892822,0.303955,0.324219
15:14:21,1.056885,0.48584,0.302734
15:14:21,0.987305,0.54541,0.183594
15:14:21,0.80957,0.443848,0.129883
15:14:21,0.843262,0.287354,0.332764
15:14:21,0.964844,0.002686,0.453369
15:14:21,0.996338,-0.123535,0.327637
15:14:21,0.859863,-0.04541,0.304932
15:14:21,0.835938,-0.049072,0.446777
15:14:21,0.846924,0.004639,0.430908
15:14:21,0.893799,-0.018066,0.380371
15:14:21,0.978027,-0.012695,0.354004
15:14:21,0.967529,0.024902,0.34375
15:14:21,0.950439,0.098633,0.362061
15:14:21,0.920654,0.108643,0.389404
15:14:21,0.904785,0.062988,0.312988
15:14:21,1.01416,0.062988,0.341797
15:14:21,0.932861,0.049316,0.34375
15:14:21,0.887207,0.035889,0.336182
15:14:21,0.951172,0.004395,0.397217
15:14:21,0.899658,0.006836,0.510254
15:14:21,0.829834,-0.043701,0.549805
15:14:21,0.783691,-0.088623,0.544922
15:14:21,0.71875,-0.091064,0.479492
15:14:21,0.702881,-0.107422,0.476563
15:14:21,0.727051,-0.136475,0.565918
15:14:21,0.405762,-0.279785,0.777832
15:14:21,0.863525,-0.217285,0.789063
15:14:21,0.05957,-0.467529,1.560547
15:14:21,0.634277,0.235596,0.764648
15:14:21,2.375244,1.425537,0.072021
15:14:21,1.665771,1.390137,0.968262
15:14:21,1.692871,1.132568,1.387207
15:14:21,2.139648,1.346191,2.480225
15:14:21,1.363037,1.539063,0.989502
15:14:21,2.931885,2.920898,-1.314209
15:14:21,7.263428,6.393555,-0.259277
15:14:21,7.275146,3.277832,-0.448242
15:14:21,4.353516,0.006348,-1.222656
15:14:21,2.043457,0.442139,0.365234
15:14:21,1.764893,0.265625,1.367432
15:14:21,1.120117,-0.09375,1.153809
15:14:21,0.545654,-0.014648,0.619873
15:14:21,0.316162,-0.029541,0.135254
15:14:21,0.311035,-0.101563,-0.011719
15:14:21,0.325439,-0.178711,0.014648
15:14:21,0.341797,-0.21582,0.162842
15:14:21,0.340332,-0.226318,0.238037
15:14:21,0.356934,-0.17627,0.291504
15:14:21,0.424805,-0.131104,0.297363
15:14:21,0.489746,-0.006592,0.19165
15:14:21,1.112305,0.319092,0.375977
15:14:21,1.797363,0.707275,0.366211
15:14:21,1.960693,0.841064,0.097656
15:14:21,1.794678,0.859131,-0.231445
15:14:21,1.797119,1.118896,-0.299561
15:14:21,1.774414,1.293457,-0.06665
15:14:21,1.624023,1.254395,0.187256
15:14:21,1.576416,1.329102,0.252197
15:14:21,1.812744,1.602783,0.065186
15:14:21,2.358398,1.770508,-0.222656
15:14:21,2.883789,1.551514,-0.55542
15:14:21,3.287354,1.13208,-0.96582
15:14:21,3.257813,0.450439,-1.631592
15:14:21,2.361816,-0.144043,-3.091553
15:14:21,1.398193,-0.101807,-4.26123
15:14:21,1.190674,-0.50293,-3.386719
15:14:21,1.234131,-0.371826,-3.28833
15:14:21,1.334229,-0.515381,-3.810547
15:14:21,1.666504,-0.899658,-3.827637
15:14:21,0.310303,-0.66333,-3.657227
15:14:21,-0.106445,-0.437744,-2.231689
15:14:21,0.16748,-0.677979,-1.980713
15:14:21,-0.087158,-0.006104,-2.665771
15:14:21,-0.396484,-0.016113,-0.892822
15:14:21,6.822266,0.950439,3.156982
15:14:21,7.552246,4.08667,1.939453
15:14:21,2.574951,1.699707,-1.28833
15:14:21,-0.610352,0.539307,-1.958984
15:14:21,3.790527,-0.495605,0.210938
15:14:21,3.817139,-0.665771,0.444336
15:14:21,0.930908,-0.22583,-0.091797
15:14:21,0.250244,-0.193604,0.22583
15:14:21,0.653076,-0.306396,0.886719
15:14:21,0.749756,-0.277344,1.119873
15:14:21,0.485352,-0.132324,0.55542
15:14:21,0.507813,-0.087402,0.257324
15:14:21,1.077881,-0.168945,0.530762
15:14:21,1.311768,-0.113281,0.418945
15:14:21,0.890137,0.076172,0.157959
15:14:21,1.046875,0.288818,0.282471
15:14:21,1.167236,0.557617,0.266357
15:14:21,0.770264,0.387451,0.108887
15:14:21,0.877686,0.13501,0.395996
15:14:21,0.977783,-0.091309,0.496094
15:14:21,0.826416,-0.050537,0.349365
15:14:21,0.838623,-0.041992,0.395264
15:14:22,0.953857,0.205566,0.399414
15:14:22,0.858398,0.297607,0.262939
15:14:22,0.904785,0.23877,0.263916
15:14:22,0.938721,0.043213,0.352783
15:14:22,0.881836,-0.001953,0.385986
15:14:22,0.863281,0.034424,0.418213
15:14:22,0.829102,0.09668,0.433105
15:14:22,0.840332,0.140381,0.350342
15:14:22,0.928223,0.130615,0.300049
15:14:22,0.980713,0.039063,0.292969
15:14:22,0.995361,0.002686,0.289307
15:14:22,0.94751,0.037109,0.414551
15:14:22,0.889893,0.110107,0.370361
15:14:22,0.915039,0.123779,0.308838
15:14:22,0.934082,0.049072,0.273438
15:14:22,0.97583,-0.001709,0.246338
15:14:22,0.998535,-0.001953,0.319092
15:14:22,0.902832,0.001709,0.426025
15:14:22,0.807129,-0.004639,0.496338
15:14:22,0.80127,-0.024902,0.501465
15:14:22,0.793457,-0.024658,0.473633
15:14:22,0.739746,-0.029541,0.441895
15:14:22,0.74585,-0.054199,0.397461
15:14:22,0.814941,-0.050049,0.394043
15:14:22,0.926758,-0.163818,0.519287
15:14:22,0.385254,-0.549316,1.001709
15:14:22,-0.386475,-1.268066,2.102051
15:14:22,1.844238,1.104004,-0.041748
15:14:22,1.768311,0.950195,0.794434
15:14:22,1.712402,0.571533,1.274658
15:14:22,1.418457,0.583008,1.279297
15:14:22,1.908203,0.257813,1.424316
15:14:22,1.422852,0.841797,0.472412
15:14:22,4.042969,3.066162,-1.261475
15:14:22,7.784424,4.908936,-0.630859
15:14:22,6.638184,2.048096,-1.699707
15:14:22,3.6875,1.128662,-0.375244
15:14:22,2.33374,0.696045,1.315186
15:14:22,1.387451,0.448975,1.513184
15:14:22,0.61792,0.406982,0.889893
15:14:22,0.243408,0.319336,0.182617
15:14:22,0.045654,0.269043,-0.116455
15:14:22,0.085205,0.342529,0.050293
15:14:22,0.403076,0.57959,0.418213
15:14:22,0.567871,0.690918,0.575195
15:14:22,0.485596,0.599854,0.390625
15:14:22,0.51709,0.667969,0.209717
15:14:22,0.671875,0.909912,0.113525
15:14:22,0.798828,1.080811,-0.02002
15:14:22,0.867676,1.116943,-0.086914
15:14:22,0.906494,1.026367,-0.059326
15:14:22,0.983154,0.898926,0.044434
15:14:22,1.143555,0.860352,0.113525
15:14:22,1.476563,0.970215,0.146484
15:14:22,2.139648,1.080566,0.078369
15:14:22,2.810791,1.002197,-0.203613
15:14:22,3.349609,1.07373,-0.585693
15:14:22,3.187744,0.896973,-1.24585
15:14:22,3.339111,0.536133,-1.238281
15:14:22,3.411865,-0.172607,-1.037598
15:14:22,3.561768,-0.370605,-1.078613
15:14:22,3.371582,-0.197021,-1.499756
15:14:22,2.190918,0.33374,-1.968506
15:14:22,1.496094,0.706787,-2.603027
15:14:22,0.790527,0.823486,-3.540771
15:14:22,-0.54248,0.681152,-4.677246
15:14:22,1.077393,-0.369141,-3.851807
15:14:22,2.158447,-1.354736,-4.583496
15:14:22,1.871582,-1.975586,-4.683105
15:14:22,0.640137,-1.115723,-3.17627
15:14:22,-0.08374,-0.324707,-1.354492
15:14:22,-0.205811,-0.293457,-0.767334
15:14:22,0.864258,-0.030518,0.993408
15:14:22,1.894043,-0.178711,3.46875
15:14:22,0.687256,-0.932861,2.197266
15:14:22,3.093506,1.745361,0.250977
15:14:22,5.366211,4.236816,-0.374268
15:14:22,1.046631,1.179688,-1.504883
15:14:22,1.810303,1.539063,-1.241455
15:14:22,3.294678,0.511719,-0.63623
15:14:22,3.32959,-1.267578,0.49585
15:14:22,1.099854,-0.379883,-0.339844
15:14:22,0.793701,-0.376465,0.44751
15:14:22,0.725586,-0.453613,0.846436
15:14:22,0.526611,-0.38501,0.947754
15:14:22,0.341553,-0.343262,0.695557
15:14:22,0.411377,-0.371094,0.48584
15:14:22,0.862549,-0.545166,0.62793
15:14:22,0.948486,-0.418945,0.415283
15:14:22,0.79248,-0.256348,0.349365
15:14:22,0.85083,-0.077393,0.458984
15:14:22,0.91333,0.098389,0.421387
15:14:22,0.888428,0.173584,0.328369
15:14:22,1.2229,0.561523,0.239014
15:14:22,1.184326,0.756104,0.111816
15:14:22,0.828613,0.512695,0.077881
15:14:22,0.743164,0.239014,0.354736
15:14:22,0.775391,0.098145,0.578613
15:14:22,0.802734,-0.044434,0.527832
15:14:22,0.901611,-0.122803,0.373291
15:14:23,0.947754,-0.06543,0.311768
15:14:23,0.9021,0.059814,0.380371
15:14:23,0.855469,0.224121,0.392578
15:14:23,0.832275,0.293457,0.318604
15:14:23,0.871094,0.152588,0.323486
15:14:23,0.933594,0.015869,0.363281
15:14:23,0.882324,0.029785,0.369385
15:14:23,0.818359,0.063232,0.426514
15:14:23,0.854492,0.118164,0.44458
15:14:23,0.930176,0.105225,0.361816
15:14:23,1.02832,0.06958,0.33667
15:14:23,1.028564,0.026123,0.311035
15:14:23,0.979004,0.016357,0.331055
15:14:23,0.92041,0.047119,0.375977
15:14:23,0.890869,0.046875,0.405273
15:14:23,0.905273,0.047607,0.418701
15:14:23,0.91333,0.036133,0.460938
15:14:23,0.827393,-0.006836,0.513184
15:14:23,0.775146,-0.035645,0.488525
15:14:23,0.834717,-0.09375,0.491699
15:14:23,0.921143,-0.131592,0.531006
15:14:23,0.915283,-0.156006,0.476074
15:14:23,0.73291,-0.136475,0.474609
15:14:23,-0.297607,-0.654541,1.118164
15:14:23,0.73584,-0.712891,1.985596
15:14:23,0.891113,0.158691,0.598389
15:14:23,1.349609,0.18042,-0.521973
15:14:23,2.181396,0.08667,0.484619
15:14:23,1.552002,0.826904,0.893311
15:14:23,1.948486,1.091309,1.558594
15:14:23,1.994141,0.893066,2.217041
15:14:23,2.106201,1.892578,0.000732
15:14:23,4.448242,4.330811,-2.158447
15:14:23,6.64209,4.019531,-1.237793
15:14:23,7.219482,0.460693,0.261475
15:14:23,2.498047,0.497314,-0.005371
15:14:23,1.83667,0.660889,1.144531
15:14:23,1.411865,0.159668,1.480713
15:14:23,0.712158,0.286621,1.039551
15:14:23,0.392578,0.582764,0.349854
15:14:23,0.243408,0.753906,-0.381592
15:14:23,0.299316,0.956543,-0.339355
15:14:23,0.418945,0.973877,-0.059326
15:14:23,0.436768,0.712646,0.259521
15:14:23,0.431641,0.504395,0.365234
15:14:23,0.493408,0.595459,0.259033
15:14:23,0.611084,0.834961,0.053955
15:14:23,0.717529,1.029541,-0.150879
15:14:23,0.737305,1.034668,-0.248291
15:14:23,0.789795,0.915283,-0.181641
15:14:23,0.919189,0.814209,0.035156
15:14:23,1.267578,0.853271,0.328857
15:14:23,1.96582,0.865479,0.436768
15:14:23,2.677002,0.800049,0.266602
15:14:23,3.108643,0.886475,-0.209961
15:14:23,3.064697,1.082031,-0.950928
15:14:23,2.788818,0.865234,-1.198975
15:14:23,2.389648,0.335693,-0.99585
15:14:23,2.52124,-0.218506,-0.757813
15:14:23,3.394531,-0.878174,-0.87207
15:14:23,3.54126,-1.135498,-1.764404
15:14:23,2.680176,-0.598877,-2.273682
15:14:23,1.657715,0.23584,-2.381592
15:14:23,1.258545,0.831299,-3.158936
15:14:23,0.485107,1.094238,-4.595703
15:14:23,-0.169189,0.18042,-5.250244
15:14:23,0.991211,-0.544434,-4.571045
15:14:23,-0.381104,-0.317871,-4.568848
15:14:23,-0.172363,-0.493896,-3.419189
15:14:23,-0.196045,-0.238037,-2.388184
15:14:23,1.352783,-0.737305,0.929443
15:14:23,3.018555,-1.583984,3.868896
15:14:23,2.548828,-0.778564,2.005371
15:14:23,2.403564,0.550781,0.330566
15:14:23,3.595215,1.251221,-0.32373
15:14:23,3.007324,0.374023,-0.987061
15:14:23,3.196289,0.817383,-1.069336
15:14:23,2.562256,0.802979,-0.823486
15:14:23,1.716064,0.16748,0.468262
15:14:23,1.006348,-0.045898,0.912598
15:14:23,0.652344,-0.00293,0.614258
15:14:23,0.643066,-0.113281,0.680908
15:14:23,0.729736,-0.286621,0.590332
15:14:23,0.902344,-0.427002,0.420654
15:14:23,0.934082,-0.406494,0.39624
15:14:23,0.820557,-0.20459,0.404297
15:14:23,0.820068,-0.008545,0.460693
15:14:23,0.878174,0.107422,0.386475
15:14:23,0.927002,0.170166,0.302002
15:14:23,1.009766,0.25708,0.26123
15:14:23,1.067383,0.378906,0.219482
15:14:23,0.953125,0.395752,0.229248
15:14:23,0.837402,0.157471,0.331543
15:14:23,0.905518,0.006104,0.432129
15:14:23,0.855469,0.021973,0.380859
15:14:23,0.884033,0.108643,0.318359
15:14:23,0.972168,0.207275,0.261719
15:14:23,0.952393,0.185791,0.250244
15:14:23,0.92334,0.095947,0.294434
15:14:23,0.879883,0.077881,0.354248
15:14:24,0.82959,0.09082,0.390381
15:14:24,0.851563,0.108887,0.368408
15:14:24,0.878906,0.09668,0.324707
15:14:24,0.939453,0.093018,0.273438
15:14:24,0.976318,0.100098,0.254883
15:14:24,0.917236,0.05957,0.304199
15:14:24,0.936768,0.039063,0.371338
15:14:24,0.950928,0.06958,0.350098
15:14:24,0.909668,0.073486,0.30957
15:14:24,0.932617,0.051758,0.324707
15:14:24,0.945313,0.038574,0.372803
15:14:24,0.951416,0.056885,0.362549
15:14:24,0.967041,0.150146,0.246338
15:14:24,0.999512,0.252197,0.117188
15:14:24,0.999512,0.131592,0.348633
15:14:24,0.847412,-0.112793,0.625244
15:14:24,0.756348,-0.17749,0.513916
15:14:24,0.801025,-0.173584,0.507813
15:14:24,0.712646,-0.241455,0.458984
15:14:24,0.36499,-0.409424,0.699463
15:14:24,-0.018555,-0.56958,1.39624
15:14:24,0.564209,-0.406738,1.598389
15:14:24,1.449951,0.881348,0.019043
15:14:24,1.863525,1.428223,0.275146
15:14:24,1.590576,1.000732,0.919678
15:14:24,1.455078,0.746338,1.22876
15:14:24,1.759033,0.753418,1.661865
15:14:24,0.887207,0.474121,0.405518
15:14:24,3.743652,2.624268,-1.808594
15:14:24,7.71875,2.408447,0.973389
15:14:24,7.048828,0.535889,-1.729004
15:14:24,4.220947,0.450684,-0.633789
15:14:24,2.721436,0.541992,1.390869
15:14:24,1.786865,0.511719,1.507568
15:14:24,0.772461,0.904785,0.576172
15:14:24,0.164551,1.0354,-0.738037
15:14:24,-0.054443,1.067871,-1.261475
15:14:24,-0.051025,0.980713,-0.814941
15:14:24,0.051758,0.69043,-0.182129
15:14:24,0.073486,0.437988,0.188477
15:14:24,0.06958,0.302002,0.272217
15:14:24,0.140137,0.365479,0.267334
15:14:24,0.307861,0.739502,0.167969
15:14:24,0.521973,1.229736,-0.059814
15:14:24,0.635254,1.479736,-0.222168
15:14:24,0.673584,1.419189,-0.246338
15:14:24,0.691895,1.152588,-0.105469
15:14:24,0.712891,0.900146,0.066895
15:14:24,0.829346,0.863281,0.223877
15:14:24,1.099854,1.056396,0.39917
15:14:24,1.413818,1.381104,0.469482
15:14:24,1.768555,1.746582,0.331055
15:14:24,2.038818,2.122559,0.019043
15:14:24,2.237549,2.311035,-0.629395
15:14:24,2.270752,2.009521,-1.535645
15:14:24,3.231689,1.336914,-1.737061
15:14:24,5.496094,-0.617676,-2.298096
15:14:24,3.619873,-0.840576,-3.428955
15:14:24,1.731445,-0.431152,-2.619141
15:14:24,0.677246,-0.211182,-2.413818
15:14:24,0.463379,-0.119141,-3.587891
15:14:24,1.013428,-0.27417,-4.421631
15:14:24,0.478516,-0.303467,-4.912109
15:14:24,-0.011719,-0.450195,-3.933838
15:14:24,0.298584,-0.824951,-2.437012
15:14:24,0.012695,-0.762451,-2.763672
15:14:24,0.5354,-0.164795,-1.522461
15:14:24,1.638672,-0.161621,1.899658
15:14:24,4.369629,0.306396,3.60498
15:14:24,4.990234,1.890381,1.333496
15:14:24,1.849609,2.103027,-1.539307
15:14:24,1.008545,1.328857,-1.20874
15:14:24,1.977051,1.510498,-0.209229
15:14:24,2.809814,0.876221,0.458008
15:14:24,1.994629,-0.600586,0.640137
15:14:24,1.425049,-0.663086,-0.15332
15:14:24,1.008545,-0.465332,0.099365
15:14:24,0.818604,-0.392578,0.482178
15:14:24,0.615479,-0.363037,0.774658
15:14:24,0.470703,-0.288574,0.793945
15:14:24,0.494873,-0.265625,0.694092
15:14:24,0.723877,-0.297363,0.590332
15:14:24,0.916992,-0.314453,0.427246
15:14:24,0.924805,-0.217041,0.359863
15:14:24,0.878174,-0.0896,0.401123
15:14:24,0.880127,0.086914,0.413086
15:14:24,0.921631,0.205078,0.370361
15:14:24,1.274414,0.692139,0.251465
15:14:24,0.887695,0.605713,0.024902
15:14:24,0.701416,0.375,0.201172
15:14:24,0.783203,0.19751,0.5271
15:14:24,0.747803,0.073975,0.578369
15:14:24,0.826416,-0.053467,0.496826
15:14:24,1.001221,-0.144287,0.372314
15:14:24,0.978516,-0.014648,0.303467
15:14:24,0.862793,0.174316,0.369873
15:14:24,0.776855,0.2229,0.406982
15:14:24,0.730713,0.190918,0.396973
15:14:24,0.867676,0.12085,0.412598
15:14:24,1.01416,0.052246,0.3479
15:14:25,0.984375,0.046631,0.262695
15:14:25,0.988037,0.105713,0.290527
15:14:25,0.968018,0.169678,0.314453
15:14:25,0.914551,0.147461,0.320557
15:14:25,0.917236,0.095459,0.375244
15:14:25,0.879883,0.052979,0.436768
15:14:25,0.8396,0.025391,0.499756
15:14:25,0.842041,-0.007813,0.563965
15:14:25,0.830322,-0.060547,0.512695
15:14:25,0.890869,0.032227,0.499512
15:14:25,0.860107,0.032959,0.486084
15:14:25,0.85498,-0.040283,0.424561
15:14:25,0.929932,-0.073242,0.429199
15:14:25,0.95874,-0.093262,0.499268
15:14:25,0.862549,-0.166992,0.518555
15:14:25,0.180908,-0.535889,0.821777
15:14:25,-0.921875,-0.974854,1.885254
15:14:25,0.068604,-0.108398,0.802734
15:14:25,1.579102,0.85083,-0.337402
15:14:25,1.471436,1.367188,0.335205
15:14:25,1.470459,1.364502,1.026123
15:14:25,1.418213,0.663574,1.074463
15:14:25,1.916992,0.284912,1.908203
15:14:25,1.692871,0.453125,1.868408
15:14:25,2.605469,1.660156,-0.666992
15:14:25,6.675781,1.874512,0.26001
15:14:25,7.962891,-0.175049,0.178955
15:14:25,5.283691,-0.713867,-2.541748
15:14:25,3.208496,0.292969,0.653076
15:14:25,1.993408,0.302246,1.748047
15:14:25,1.365479,-0.000732,1.523926
15:14:25,0.522461,0.171387,0.375244
15:14:25,0.376953,1.005371,-0.041016
15:14:25,0.266357,1.317139,-1.218262
15:14:25,-0.057617,1.385254,-1.965332
15:14:25,-0.090332,1.23877,-1.026855
15:14:25,0.023438,0.577881,-0.131104
15:14:25,0.076416,0.213623,0.492676
15:14:25,-0.119385,0.154785,0.592773
15:14:25,-0.151123,0.233398,0.5354
15:14:25,0.015625,0.6604,0.539307
15:14:25,0.352783,1.090088,0.439209
15:14:25,0.474365,0.908447,0.369629
15:14:25,0.706299,0.974854,0.532959
15:14:25,0.909424,0.947021,0.700684
15:14:25,1.076416,0.958984,0.784912
15:14:25,1.310059,1.123047,0.837158
15:14:25,1.596191,1.431152,0.749756
15:14:25,1.874268,1.768555,0.518066
15:14:25,1.758789,1.682373,-0.040771
15:14:25,1.887939,1.695557,-0.612061
15:14:25,2.724854,1.595703,-0.952393
15:14:25,6.137451,-0.460449,-1.017822
15:14:25,6.529541,-1.263672,-2.890625
15:14:25,2.51709,0.072998,-4.045654
15:14:25,1.005127,0.178955,-2.437012
15:14:25,0.089355,0.449951,-3.109131
15:14:25,0.268799,0.259277,-3.957764
15:14:25,1.100342,-0.382324,-3.791992
15:14:25,0.18457,-0.403076,-4.846924
15:14:25,-0.04541,-0.686523,-3.794922
15:14:25,0.064697,-0.671631,-2.563232
15:14:25,0.145508,-0.597656,-2.062988
15:14:25,1.116943,-0.43335,0.2229
15:14:25,1.946777,-0.508789,2.418701
15:14:25,4.144775,-0.045898,2.322266
15:14:25,5.633789,4.493164,0.114502
15:14:25,2.787354,2.647949,-1.384033
15:14:25,0.630859,1.135254,-1.924072
15:14:25,1.660645,1.241455,0.087646
15:14:25,2.451416,0.61084,0.641602
15:14:25,2.130859,-0.279541,0.830322
15:14:25,0.908691,-0.361572,0.051514
15:14:25,0.890381,-0.612061,0.142578
15:14:25,0.953125,-0.567139,0.436035
15:14:25,0.679688,-0.398438,0.623291
15:14:25,0.553223,-0.344238,0.687744
15:14:25,0.674072,-0.302734,0.58252
15:14:25,0.842285,-0.279785,0.435547
15:14:25,0.949463,-0.137207,0.375244
15:14:25,0.962402,0.075684,0.345215
15:14:25,0.914795,0.169434,0.303711
15:14:25,1.070068,0.374512,0.278564
15:14:25,1.154053,0.608154,0.181641
15:14:25,0.880859,0.468018,0.146729
15:14:25,0.851563,0.157471,0.33374
15:14:25,0.940186,-0.057617,0.483643
15:14:25,0.798828,-0.022705,0.400146
15:14:25,0.819092,0.017334,0.397217
15:14:25,0.952393,0.203125,0.32251
15:14:25,0.939453,0.22998,0.242432
15:14:25,0.951904,0.128174,0.27124
15:14:25,0.917969,0.060059,0.331787
15:14:25,0.858643,0.078369,0.359619
15:14:25,0.828125,0.107178,0.375244
15:14:25,0.854492,0.155029,0.347412
15:14:25,0.896484,0.133545,0.315186
15:14:25,0.960938,0.072021,0.308594
15:14:25,0.973877,0.049805,0.332764
15:14:25,0.945801,0.035889,0.381836
15:14:26,0.921875,0.016357,0.396973
15:14:26,0.936768,0.023682,0.36792
15:14:26,0.914795,0.045166,0.359375
15:14:26,0.90918,0.04248,0.346924
15:14:26,0.953613,0.010498,0.340332
15:14:26,0.911133,-0.005371,0.4104
15:14:26,0.868164,0.010498,0.423096
15:14:26,0.86499,0.019287,0.429932
15:14:26,0.86084,-0.03125,0.442627
15:14:26,0.887207,-0.111084,0.414307
15:14:26,0.937988,-0.157715,0.465088
15:14:26,0.917969,-0.22876,0.578369
15:14:26,0.794189,-0.237061,0.560303
15:14:26,-0.556396,-0.932861,1.647949
15:14:26,-1.23877,-1.139404,2.598633
15:14:26,2.36084,1.511963,-0.568604
15:14:26,1.842041,0.976318,-0.257324
15:14:26,2.154541,1.42749,1.193115
15:14:26,1.395996,1.249023,1.055908
15:14:26,1.922363,1.153809,2.057129
15:14:26,1.382568,1.55127,1.897217
15:14:26,0.720459,0.687744,-1.387207
15:14:26,5.537842,5.395264,-1.069336
15:14:26,7.999756,4.149658,0.328125
15:14:26,5.394287,0.949219,-1.63916
15:14:26,3.066406,0.485352,-0.431152
15:14:26,2.188721,0.45752,1.189209
15:14:26,1.647949,0.373047,1.521973
15:14:26,0.845459,0.366699,0.93335
15:14:26,0.352051,0.312256,0.128662
15:14:26,0.149902,0.244629,-0.27832
15:14:26,0.161133,0.167725,-0.190918
15:14:26,0.288574,0.107422,0.051758
15:14:26,0.38208,0.086914,0.193115
15:14:26,0.521973,0.275391,0.222412
15:14:26,0.781494,0.731201,0.148193
15:14:26,0.963379,1.150146,-0.08667
15:14:26,1.254395,1.21167,-0.25293
15:14:26,1.39624,0.621826,-0.494141
15:14:26,1.051514,0.01001,-0.532471
15:14:26,0.958984,0.096191,0.084473
15:14:26,1.168945,0.145996,0.388672
15:14:26,1.50293,0.232422,0.440918
15:14:26,1.895264,0.564209,0.31958
15:14:26,2.128662,1.103271,0.175049
15:14:26,2.234131,1.494141,-0.190674
15:14:26,2.343506,1.372803,-0.704102
15:14:26,1.877441,0.959717,-1.14917
15:14:26,1.76416,0.963379,-0.55957
15:14:26,2.42749,0.372314,-0.592773
15:14:26,5.939941,-0.904785,0.201416
15:14:26,2.884766,0.289063,-3.679688
15:14:26,2.097168,0.717285,-4.557373
15:14:26,0.845459,0.594971,-3.683838
15:14:26,0.437744,0.063477,-3.133545
15:14:26,0.86499,-0.23584,-3.489746
15:14:26,1.00293,-0.650391,-3.965576
15:14:26,0.908936,-0.8125,-3.503662
15:14:26,0.41626,-0.813477,-2.785889
15:14:26,-0.045166,-0.628418,-1.857422
15:14:26,0.645264,-0.469971,-0.662354
15:14:26,1.817627,-0.28125,1.193115
15:14:26,1.025879,-0.277588,1.262939
15:14:26,-0.107422,-0.734375,0.300537
15:14:26,1.710938,0.120605,1.036377
15:14:26,5.051025,3.141602,1.816406
15:14:26,3.02417,2.804443,-0.477539
15:14:26,-1.12793,0.595459,-2.982178
15:14:26,2.682861,1.285889,-0.802246
15:14:26,4.873291,-0.303467,1.041992
15:14:26,0.502686,-0.161865,-0.149902
15:14:26,0.247314,0.00415,0.367188
15:14:26,0.528809,-0.134766,0.75708
15:14:26,0.543213,-0.203613,0.806152
15:14:26,0.470215,-0.256592,0.809814
15:14:26,0.487305,-0.326172,0.467773
15:14:26,0.988525,-0.659912,0.540039
15:14:26,1.046875,-0.421875,0.296875
15:14:26,0.821533,-0.260498,0.303711
15:14:26,0.792969,-0.134033,0.535889
15:14:26,0.833496,0.076172,0.473633
15:14:26,1.047607,0.514893,0.400635
15:14:26,1.119629,0.772949,0.148682
15:14:26,0.822266,0.624756,-0.128906
15:14:26,0.88501,0.453125,0.13623
15:14:26,1.050781,0.053955,0.432617
15:14:26,0.885986,-0.054199,0.40625
15:14:26,0.795166,-0.029053,0.403076
15:14:26,0.862793,0.032471,0.41626
15:14:26,0.919189,0.174316,0.358154
15:14:26,0.900391,0.253906,0.291504
15:14:26,0.923584,0.199219,0.284912
15:14:26,0.939697,0.093506,0.334717
15:14:26,0.89624,0.044678,0.375977
15:14:26,0.918457,0.042969,0.414551
15:14:26,0.940674,0.048584,0.398682
15:14:26,0.946777,0.07959,0.333252
15:14:26,0.936523,0.115967,0.340088
15:14:26,0.88501,0.109863,0.320557
15:14:26,0.912598,0.106445,0.316895
15:14:27,0.916992,0.089355,0.346924
15:14:27,0.894287,0.074463,0.344971
15:14:27,0.938232,0.059814,0.365479
15:14:27,0.90332,0.043701,0.408691
15:14:27,0.889648,0.01416,0.408691
15:14:27,0.875,0,0.484131
15:14:27,0.800781,-0.05835,0.529541
15:14:27,0.767334,-0.101318,0.536377
15:14:27,0.777344,-0.176758,0.441162
15:14:27,0.666748,-0.202393,0.610596
15:14:27,0.5625,-0.246094,0.858398
15:14:27,-0.549072,-1.114014,2.391357
15:14:27,0.90332,0.520752,0.663574
15:14:27,2.29126,1.496582,0.538086
15:14:27,0.814209,0.76709,0.560547
15:14:27,1.631104,1.764893,1.214111
15:14:27,2.355469,1.733398,1.246826
15:14:27,1.102783,0.856445,1.181641
15:14:27,1.104248,1.143799,-1.166992
15:14:27,5.786377,1.94751,0.199951
15:14:27,7.982178,1.323486,0.086426
15:14:27,5.004639,0.300293,-2.450684
15:14:27,3.064209,0.530273,0.517334
15:14:27,1.777588,0.356934,1.579102
15:14:27,1.139893,0.229004,1.378418
15:14:27,0.364746,0.533203,0.50708
15:14:27,0.067383,0.523193,-0.236084
15:14:27,0.008789,0.683105,-0.361572
15:14:27,0.151367,0.708008,-0.124756
15:14:27,0.293945,0.724365,0.152344
15:14:27,0.249268,0.48877,0.338379
15:14:27,0.290771,0.479492,0.370605
15:14:27,0.416016,0.703125,0.241455
15:14:27,0.592773,0.967529,0.109863
15:14:27,0.7146,1.095947,0.005615
15:14:27,0.702881,0.935791,-0.052734
15:14:27,0.714355,0.706543,0.063965
15:14:27,0.831787,0.572266,0.201416
15:14:27,1.321533,0.478516,0.471436
15:14:27,2.068115,0.278564,0.562744
15:14:27,2.541504,0.196777,0.387207
15:14:27,3.117432,0.209717,-0.131592
15:14:27,3.189941,0.309082,-0.739014
15:14:27,2.827148,0.293457,-0.482422
15:14:27,2.291748,0.307373,-0.293945
15:14:27,1.936768,0.234375,-0.544189
15:14:27,2.756836,-0.441162,-0.665283
15:14:27,3.605225,-0.793701,-1.194824
15:14:27,3.210693,-0.087402,-1.934814
15:14:27,2.522217,0.958252,-2.414551
15:14:27,1.57251,1.458984,-3.415039
15:14:27,0.061768,1.020508,-4.580322
15:14:27,0.39917,-0.041016,-4.183838
15:14:27,1.874512,-0.797119,-3.597168
15:14:27,0.416992,-0.456299,-4.621094
15:14:27,-0.239258,-0.365234,-3.376465
15:14:27,-0.158691,-0.456299,-2.185791
15:14:27,0.333984,-0.631348,-1.756104
15:14:27,2.030518,-1.007568,1.701904
15:14:27,1.435303,-0.966797,1.839844
15:14:27,1.542236,-0.54834,1.106201
15:14:27,3.317383,1.002197,1.177979
15:14:27,4.088135,2.596436,-0.26123
15:14:27,1.906006,1.365234,-1.270508
15:14:27,2.677002,1.937744,-1.789795
15:14:27,2.522949,0.958496,-0.547852
15:14:27,2.462402,-0.602783,0.598389
15:14:27,1.241699,-0.460449,0.07666
15:14:27,0.914307,-0.401611,0.520264
15:14:27,0.694092,-0.365967,0.665771
15:14:27,0.469238,-0.37793,0.697266
15:14:27,0.405762,-0.466553,0.704102
15:14:27,0.585693,-0.561035,0.638184
15:14:27,0.804688,-0.574951,0.48291
15:14:27,0.825928,-0.486084,0.371826
15:14:27,0.789063,-0.349854,0.39624
15:14:27,0.811035,-0.23877,0.458252
15:14:27,0.825928,-0.12085,0.492676
15:14:27,0.817627,0.041748,0.410156
15:14:27,1.028076,0.331055,0.288574
15:14:27,1.377441,0.786377,0.139648
15:14:27,1.143799,0.847168,-0.082764
15:14:27,0.636963,0.455078,-0.010254
15:14:27,0.790283,0.258057,0.451416
15:14:27,0.782959,0.06543,0.601807
15:14:27,0.834961,-0.051025,0.50415
15:14:27,0.965332,-0.177734,0.334473
15:14:27,0.946777,-0.081787,0.267334
15:14:27,0.856689,0.041748,0.378662
15:14:27,0.859619,0.26416,0.391113
15:14:27,0.795166,0.300537,0.267822
15:14:27,0.892334,0.190674,0.337891
15:14:27,0.975342,0.046875,0.330566
15:14:27,1.002441,0.008545,0.324463
15:14:27,0.980469,0.05835,0.351563
15:14:27,0.939209,0.131104,0.378906
15:14:27,0.857422,0.134033,0.338623
15:14:27,0.935303,0.12207,0.336182
15:14:27,0.975342,0.070801,0.340088
15:14:27,0.909668,0.021484,0.349609
15:14:28,0.905273,0.01709,0.425293
15:14:28,0.870117,0.002197,0.511719
15:14:28,0.789795,-0.033691,0.557129
15:14:28,0.775146,-0.052734,0.512207
15:14:28,0.87207,-0.080566,0.440186
15:14:28,0.984131,-0.134033,0.487061
15:14:28,0.927979,-0.124512,0.529541
15:14:28,0.532715,-0.308838,0.623535
15:14:28,-0.229492,-0.95459,1.745117
15:14:28,-0.499512,-0.825928,2.31543
15:14:28,0.747803,0.532471,-0.222412
15:14:28,2.20874,1.049316,-0.799072
15:14:28,1.830811,1.227051,1.056396
15:14:28,1.384033,0.455322,1.386719
15:14:28,1.812744,0.687988,1.797363
15:14:28,1.849121,0.687256,1.359619
15:14:28,1.518799,0.740723,-0.55542
15:14:28,5.827148,4.123047,-1.092773
15:14:28,7.987549,1.016357,-0.602295
15:14:28,6.182129,0.205566,-1.400146
15:14:28,3.186768,0.602539,0.094482
15:14:28,2.1521,0.456299,1.456299
15:14:28,1.395996,0.41626,1.313477
15:14:28,0.602783,0.809082,0.676514
15:14:28,0.151855,0.849121,-0.503662
15:14:28,-0.064453,0.987061,-0.986084
15:14:28,-0.048584,1.032715,-0.708252
15:14:28,0.05835,0.748047,-0.198486
15:14:28,0.071777,0.428711,0.18335
15:14:28,0.054443,0.216064,0.287598
15:14:28,0.144775,0.261719,0.364014
15:14:28,0.437256,0.655273,0.470215
15:14:28,0.680664,1.033691,0.407227
15:14:28,0.689453,1.093262,0.22876
15:14:28,0.716553,0.965332,0.198486
15:14:28,0.847168,0.838623,0.355713
15:14:28,0.997803,0.811523,0.481445
15:14:28,1.209961,0.94165,0.544189
15:14:28,1.489014,1.175537,0.489258
15:14:28,1.982422,1.5271,0.235352
15:14:28,2.932861,1.808838,-0.147461
15:14:28,4.066162,1.100342,-0.856689
15:14:28,6.0354,-0.409424,-1.210205
15:14:28,2.885986,-0.466553,-3.082275
15:14:28,2.377686,-0.756592,-1.973389
15:14:28,1.988281,-0.69458,-1.40918
15:14:28,1.97168,-0.019287,-1.601563
15:14:28,1.926514,0.786377,-2.858887
15:14:28,1.538574,1.137451,-4.274414
15:14:28,1.234619,-0.075195,-4.547607
15:14:28,0.162109,-0.070313,-4.162842
15:14:28,-0.143799,-0.241943,-3.947754
15:14:28,-0.244873,-0.490967,-3.84668
15:14:28,-0.4104,-0.522461,-3.601563
15:14:28,-0.312012,-0.238525,-2.880371
15:14:28,2.201416,-1.168945,2.593262
15:14:28,4.534668,-1.154785,4.461182
15:14:28,2.603516,-0.077393,0.822021
15:14:28,2.666748,2.372559,-1.180908
15:14:28,3.266602,2.933838,-1.577393
15:14:28,2.158447,1.823486,-1.214844
15:14:28,2.37793,1.18335,-0.136475
15:14:28,2.211914,-0.38623,0.646973
15:14:28,1.645264,-0.682373,0.687256
15:14:28,0.832031,-0.400391,-0.133545
15:14:28,0.828369,-0.581543,0.568848
15:14:28,0.52002,-0.473877,0.65332
15:14:28,0.471436,-0.471436,0.763916
15:14:28,0.575684,-0.415283,0.648926
15:14:28,0.823242,-0.419678,0.447754
15:14:28,0.910889,-0.376221,0.346924
15:14:28,0.861572,-0.230713,0.350586
15:14:28,0.937988,-0.037354,0.469238
15:14:28,0.890869,0.137207,0.376953
15:14:28,0.891357,0.229736,0.288574
15:14:28,1.220215,0.578125,0.219727
15:14:28,1.097412,0.665771,0.055664
15:14:28,0.797607,0.456055,0.084961
15:14:28,0.940918,0.079834,0.429443
15:14:28,0.887695,-0.018311,0.455811
15:14:28,0.773438,-0.040039,0.384033
15:14:28,0.855957,-0.069336,0.378906
15:14:28,0.959473,0.025879,0.350586
15:14:28,0.975586,0.192139,0.296631
15:14:28,0.902832,0.275146,0.258301
15:14:28,0.875244,0.192383,0.296631
15:14:28,0.894287,0.064941,0.343506
15:14:28,0.87915,0.046387,0.347412
15:14:28,0.886963,0.103516,0.338379
15:14:28,0.89624,0.137939,0.320801
15:14:28,0.961182,0.106689,0.304199
15:14:28,1.072021,0.031494,0.293213
15:14:28,0.989258,-0.012207,0.300537
15:14:28,0.891602,0.010986,0.317139
15:14:28,0.93042,0.062012,0.335449
15:14:28,0.927246,0.076172,0.371826
15:14:28,0.863525,0.040527,0.415283
15:14:28,0.86792,0.030518,0.448486
15:14:28,0.913086,0.025635,0.505859
15:14:28,0.775146,-0.037354,0.491455
15:14:29,0.817383,-0.077881,0.357178
15:14:29,0.998535,-0.030518,0.405518
15:14:29,0.924561,-0.116699,0.404785
15:14:29,0.984131,-0.181641,0.408203
15:14:29,0.709229,-0.307617,0.609131
15:14:29,-1.554199,-1.39917,2.363281
15:14:29,1.255859,-0.21167,2.01709
15:14:29,0.768311,0.204834,0.077881
15:14:29,2.06665,1.568848,0.070557
15:14:29,2.042236,1.726074,0.796143
15:14:29,1.51123,1.448975,1.230957
15:14:29,1.691406,1.219727,2.144775
15:14:29,0.896729,0.58252,1.589111
15:14:29,0.996582,1.105957,-1.094971
15:14:29,5.932129,4.068848,0.115723
15:14:29,7.724609,3.023926,-0.523682
15:14:29,4.767822,0.160889,-2.455078
15:14:29,3.401123,0.733398,0.362305
15:14:29,2.243652,0.70752,1.572754
15:14:29,1.262207,0.698242,0.931885
15:14:29,0.398438,1.070068,0.045654
15:14:29,0.024658,0.920898,-0.824219
15:14:29,-0.089111,0.73877,-0.848877
15:14:29,-0.087402,0.442871,-0.39624
15:14:29,0.007324,0.196777,0.005371
15:14:29,0.122559,0.11084,0.313965
15:14:29,0.30127,0.163086,0.530518
15:14:29,0.558594,0.442383,0.605469
15:14:29,0.787842,0.844727,0.409668
15:14:29,0.859131,1.211426,0.026855
15:14:29,0.800049,1.327637,-0.338379
15:14:29,0.786133,1.255371,-0.439209
15:14:29,0.904053,1.0896,-0.203613
15:14:29,1.051758,0.982422,0.097656
15:14:29,1.314453,1.025879,0.299072
15:14:29,1.588623,1.233887,0.291748
15:14:29,2.017334,1.554688,0.216797
15:14:29,2.639893,1.743652,-0.264404
15:14:29,3.141846,1.526123,-0.738525
15:14:29,4.916504,0.167969,-1.317383
15:14:29,4.593506,-0.58667,-2.340332
15:14:29,3.090576,-0.626953,-2.262939
15:14:29,1.881836,-0.196289,-1.774658
15:14:29,1.069824,0.584229,-2.31543
15:14:29,0.829346,0.990723,-3.510986
15:14:29,1.160645,0.268066,-4.205566
15:14:29,1.415039,-0.52832,-4.289795
15:14:29,0.855957,-0.436523,-4.268555
15:14:29,0.710449,-0.783936,-3.696289
15:14:29,-0.161865,-0.502686,-2.814453
15:14:29,-0.149902,-0.378662,-1.383545
15:14:29,-0.150391,-0.214111,-1.412598
15:14:29,0.668701,-0.058594,0.074707
15:14:29,2.066162,-0.371338,3.013672
15:14:29,2.053467,-0.373047,1.861084
15:14:29,6.36792,3.039307,1.136963
15:14:29,3.432617,2.063477,-0.902344
15:14:29,0.249756,1.300049,-2.665527
15:14:29,3.456055,1.025391,-0.392578
15:14:29,3.502441,-0.488525,0.643311
15:14:29,1.12207,-0.282715,0.050293
15:14:29,0.516113,-0.236816,0.477783
15:14:29,0.674561,-0.250732,0.784912
15:14:29,0.675049,-0.251953,0.906006
15:14:29,0.456543,-0.220459,0.600586
15:14:29,0.489258,-0.302002,0.461426
15:14:29,0.973389,-0.486084,0.531494
15:14:29,0.97583,-0.366943,0.38501
15:14:29,0.78418,-0.186279,0.371582
15:14:29,0.880371,-0.002686,0.481689
15:14:29,0.906006,0.169922,0.37793
15:14:29,1.081787,0.458984,0.223145
15:14:29,1.220459,0.750732,0.13623
15:14:29,0.923096,0.622803,0.075195
15:14:29,0.741699,0.296143,0.274414
15:14:29,0.818604,0.063232,0.586182
15:14:29,0.830322,-0.059814,0.525146
15:14:29,0.814209,-0.092773,0.381104
15:14:29,0.903809,-0.062256,0.383057
15:14:29,0.92627,0.090088,0.348145
15:14:29,0.978027,0.300293,0.294922
15:14:29,0.881836,0.281494,0.254639
15:14:29,0.88916,0.120605,0.356201
15:14:29,0.873047,0.042236,0.408203
15:14:29,0.860596,0.047607,0.389893
15:14:29,0.951416,0.092773,0.375732
15:14:29,0.937744,0.093018,0.344482
15:14:29,0.952637,0.109131,0.357666
15:14:29,0.944092,0.095703,0.362549
15:14:29,0.890625,0.096924,0.333008
15:14:29,0.941162,0.070557,0.324951
15:14:29,0.947998,0.05127,0.335693
15:14:29,0.913818,0.034424,0.360596
15:14:29,0.908691,0.032471,0.400391
15:14:29,0.894775,0.025391,0.466553
15:14:29,0.833252,0.006104,0.491943
15:14:29,0.790527,-0.071289,0.490723
15:14:29,0.875,-0.082764,0.391602
15:14:29,0.924805,0.000977,0.400391
15:14:29,0.95459,-0.040771,0.47168
15:14:30,0.851563,-0.183105,0.475342
15:14:30,0.0354,-0.590576,0.915283
15:14:30,0.265869,-0.705566,1.832275
15:14:30,1.193359,-0.053711,1.306885
15:14:30,1.070557,0.76123,-0.566162
15:14:30,2.309082,1.555176,-0.17627
15:14:30,1.641602,1.10498,1.041748
15:14:30,1.538574,1.001221,1.333496
15:14:30,2.219971,0.940674,2.661865
15:14:30,1.614746,1.499023,2.046143
15:14:30,1.890869,1.262451,-1.350342
15:14:30,5.987305,4.404785,-0.827148
15:14:30,7.966309,1.208984,-0.487793
15:14:30,4.646484,0.621826,-1.081299
15:14:30,2.451904,0.605957,0.373291
15:14:30,1.904053,0.335693,1.494873
15:14:30,1.143799,0.510498,1.289063
15:14:30,0.47168,0.58374,0.506104
15:14:30,0.14917,0.633057,-0.290771
15:14:30,0.017334,0.728271,-0.495117
15:14:30,0.136475,0.795654,-0.219238
15:14:30,0.221436,0.651123,0.150879
15:14:30,0.203857,0.424561,0.369873
15:14:30,0.19873,0.368408,0.40918
15:14:30,0.358398,0.606934,0.324707
15:14:30,0.568359,0.927246,0.195313
15:14:30,0.713623,1.092041,0.126709
15:14:30,0.861084,1.088867,0.164551
15:14:30,0.991943,1.012695,0.22876
15:14:30,1.104248,0.970703,0.24585
15:14:30,1.188965,0.982666,0.124268
15:14:30,1.602539,1.116211,-0.016602
15:14:30,2.58667,1.272217,-0.059326
15:14:30,3.309814,1.164551,-0.418213
15:14:30,3.748779,0.955078,-0.960449
15:14:30,3.996582,0.401123,-1.367676
15:14:30,3.663574,-0.316895,-1.557129
15:14:30,3.366211,-0.61499,-1.422363
15:14:30,3.046143,-0.576416,-1.630615
15:14:30,2.323486,0.106934,-2.132324
15:14:30,1.657227,0.702637,-2.469238
15:14:30,1.312256,1.197754,-3.28418
15:14:30,0.304932,0.968018,-4.416504
15:14:30,-0.387207,0.518066,-4.373535
15:14:30,1.327881,-0.658203,-3.020264
15:14:30,1.770508,-1.068848,-4.490723
15:14:30,1.804199,-2.000244,-4.510986
15:14:30,1.396973,-1.84375,-2.48877
15:14:30,0.315186,-0.650391,-1.101807
15:14:30,0.881104,-0.488037,1.730469
15:14:30,2.05127,-0.513916,3.386475
15:14:30,1.051758,-0.315186,1.906494
15:14:30,-0.151367,-0.358887,0.271973
15:14:30,-0.63501,-0.767578,-1.429443
15:14:30,0.537109,1.078125,-1.052979
15:14:30,4.476074,5.322021,2.795654
15:14:30,3.356201,4.328125,1.520996
15:14:30,-1.023682,0.779297,-2.79834
15:14:30,0.196777,1.32251,-1.445801
15:14:30,1.586426,1.170166,0.382324
15:14:30,1.041748,0.475342,0.526611
15:14:30,0.908936,-0.438477,0.77002
15:14:30,2.310059,-1.241699,1.123291
15:14:30,2.457764,-1.496582,-0.750244
15:14:30,1.100098,-0.630615,-0.76709
15:14:30,0.802002,-0.635254,0.115479
15:14:30,0.696777,-0.513428,0.823975
15:14:30,0.544678,-0.412598,1.111572
15:14:30,0.340088,-0.325195,0.786377
15:14:30,0.29541,-0.223389,0.354004
15:14:30,0.379639,-0.112793,0.29834
15:14:30,0.708496,-0.147217,0.572021
15:14:30,1.45166,-0.223633,0.581543
15:14:30,1.085205,0.006836,0.203369
15:14:30,0.747559,0.053711,0.11792
15:14:30,1.468018,0.741699,0.240967
15:14:30,1.100098,0.785645,-0.029297
15:14:30,0.651611,0.440186,0.024902
15:14:30,0.71582,0.244385,0.405273
15:14:30,0.779297,0.134033,0.619873
15:14:30,0.67334,0.036865,0.509766
15:14:30,0.661377,0.021729,0.366211
15:14:30,1.079102,-0.064697,0.389893
15:14:30,1.194824,-0.025635,0.251709
15:14:30,0.946533,0.148682,0.143066
15:14:30,0.938477,0.169434,0.314941
15:14:30,0.940918,0.100342,0.400391
15:14:30,0.957764,0.004395,0.388672
15:14:30,0.945557,-0.007324,0.36792
15:14:30,0.909912,0.012207,0.355469
15:14:30,0.881348,0.053711,0.365723
15:14:30,0.878906,0.045166,0.395508
15:14:30,0.910889,0.023193,0.41748
15:14:30,0.898682,-0.0271,0.477539
15:14:30,0.837158,-0.085449,0.477295
15:14:30,0.831055,-0.108154,0.385254
15:14:30,0.908447,-0.062012,0.375244
15:14:30,0.983643,-0.075928,0.421143
15:14:30,0.962891,-0.15332,0.385254
15:14:30,0.619141,-0.35083,0.703857
15:14:31,-0.833984,-1.262207,2.044922
15:14:31,1.298828,-0.532471,1.984375
15:14:31,1.254395,0.352783,-0.137939
15:14:31,2.231445,1.432617,0.41626
15:14:31,1.616211,1.225586,0.877197
15:14:31,0.920166,0.31665,0.759033
15:14:31,1.918457,1.417969,1.975098
15:14:31,1.054932,0.561035,0.331787
15:14:31,3.476074,3.424072,-1.70166
15:14:31,7.820313,4.468994,-0.312988
15:14:31,7.222412,1.426514,-0.615723
15:14:31,3.879395,0.510498,-1.008545
15:14:31,2.210449,0.573975,1.098145
15:14:31,1.645752,0.331055,1.73291
15:14:31,0.825439,0.24707,1.068115
15:14:31,0.259033,0.213867,0.286377
15:14:31,0.018555,0.175049,-0.302734
15:14:31,-0.064453,0.127686,-0.310547
15:14:31,0.055664,0.10791,-0.05542
15:14:31,0.279541,0.292969,0.297607
15:14:31,0.525391,0.51709,0.564453
15:14:31,0.553223,0.652344,0.437256
15:14:31,0.572021,0.775391,0.225098
15:14:31,0.684082,0.972412,0.129883
15:14:31,0.81543,1.142822,0.028564
15:14:31,0.85791,1.098633,-0.016113
15:14:31,0.884277,0.892822,0.048828
15:14:31,0.964355,0.763184,0.2229
15:14:31,1.093506,0.696533,0.375244
15:14:31,1.316406,0.765137,0.384766
15:14:31,1.890381,1.03833,0.518799
15:14:31,2.32666,1.080322,0.080811
15:14:31,5.341309,0.07373,0.262207
15:14:31,3.943115,0.221191,-1.905762
15:14:31,3.026855,-0.062988,-2.483887
15:14:31,3.020264,-0.458496,-1.455811
15:14:31,2.893799,-0.322998,-1.166016
15:14:31,2.756348,0.329102,-1.872559
15:14:31,2.111816,1.207275,-2.902344
15:14:31,0.951904,1.379639,-4.164063
15:14:31,0.343506,0.666992,-4.589355
15:14:31,0.615479,-0.057373,-4.294434
15:14:31,0.652832,-0.458252,-4.75
15:14:31,0.456787,-0.867676,-4.794678
15:14:31,0.057129,-0.858154,-3.515137
15:14:31,-0.186768,-0.346191,-1.775146
15:14:31,1.067383,-0.891602,0.598877
15:14:31,3.123047,-2.269531,4.181641
15:14:31,0.681885,-0.775635,1.240479
15:14:31,0.876709,-0.579834,0.294678
15:14:31,2.090332,-0.120117,-0.143799
15:14:31,7.94873,1.051514,3.196777
15:14:31,1.475342,0.496826,-3.115234
15:14:31,3.669189,-0.054932,-1.648682
15:14:31,2.533447,0.982666,-1.031982
15:14:31,1.11084,0.242676,0.18457
15:14:31,0.862793,0.114014,1.145264
15:14:31,0.687012,0.016357,1.142578
15:14:31,0.412598,-0.003174,0.713623
15:14:31,0.291748,0,0.442871
15:14:31,0.328125,-0.002197,0.419189
15:14:31,0.40625,0.006104,0.528809
15:14:31,0.460205,0.023438,0.581055
15:14:31,0.632324,0.108154,0.606934
15:14:31,0.782227,0.180908,0.487549
15:14:31,1.686035,-0.036133,0.371094
15:14:31,1.629639,0.114014,-0.11499
15:14:31,0.95166,0.359619,-0.263184
15:14:31,1.005371,0.23584,0.232666
15:14:31,0.848145,0.12793,0.508545
15:14:31,0.679199,0.029541,0.603027
15:14:31,0.613037,0.028809,0.549072
15:14:31,0.647949,0.099365,0.432861
15:14:31,0.91626,0.19751,0.368164
15:14:31,1.063232,0.166748,0.288086
15:14:31,0.908936,0.050293,0.231934
15:14:31,0.924561,0.015625,0.378174
15:14:31,0.89624,0.069336,0.375977
15:14:31,1.081787,0.076172,0.347656
15:14:31,0.947021,0.046875,0.248535
15:14:31,0.952148,0.078613,0.330566
15:14:31,0.907227,0.078125,0.38916
15:14:31,0.891846,0.077148,0.406982
15:14:31,0.877197,0.094482,0.376709
15:14:31,0.859375,0.067871,0.388184
15:14:31,0.87207,0.048584,0.390869
15:14:31,0.871338,0.04834,0.384521
15:14:31,0.896729,0.039063,0.426514
15:14:31,0.923584,0.016357,0.439941
15:14:31,0.90332,-0.040771,0.4375
15:14:31,0.877686,-0.087891,0.428223
15:14:31,0.880371,-0.078125,0.467285
15:14:31,0.887451,-0.149658,0.522949
15:14:31,0.870117,-0.186035,0.465332
15:14:31,-0.538818,-0.960693,1.451904
15:14:31,-0.003418,-0.718262,2.245605
15:14:31,1.074463,0.281494,0.918213
15:14:31,1.212891,0.793945,-0.376221
15:14:31,2.34375,1.191406,0.499023
15:14:31,1.522461,0.717529,1.304443
15:14:32,1.783447,0.967773,1.217041
15:14:32,2.320801,1.093506,1.562988
15:14:32,2.047852,1.750244,-0.750488
15:14:32,6.56543,4.323486,-1.362549
15:14:32,7.999756,2.251709,0.583008
15:14:32,5.417725,0.332031,-1.67334
15:14:32,2.718994,0.493652,0.484375
15:14:32,1.857178,0.256104,1.817627
15:14:32,1.111816,0.045898,1.52417
15:14:32,0.454346,0.231201,0.593018
15:14:32,0.105225,0.233154,-0.294189
15:14:32,-0.127197,0.246826,-0.768799
15:14:32,-0.130371,0.427979,-0.610596
15:14:32,0.142822,0.75,-0.176514
15:14:32,0.338379,0.830811,0.160156
15:14:32,0.215088,0.740967,0.218018
15:14:32,-0.10083,0.666748,0.269775
15:14:32,-0.187744,0.927002,0.270264
15:14:32,0.116455,1.157715,0.207275
15:14:32,0.542236,1.265625,0.221924
15:14:32,0.727051,1.104492,0.316162
15:14:32,0.803955,0.889648,0.454346
15:14:32,0.996826,0.897705,0.574951
15:14:32,1.286133,1.110352,0.618896
15:14:32,1.61499,1.486328,0.524658
15:14:32,1.87793,1.838135,0.283447
15:14:32,2.011719,1.97998,-0.082275
15:14:32,2.042969,1.911133,-0.442627
15:14:32,2.192627,1.58667,-0.849121
15:14:32,2.667969,1.03418,-1.306396
15:14:32,3.799316,-0.01123,-1.987549
15:14:32,4.813721,-1.37207,-4.214844
15:14:32,2.079102,-0.506836,-4.706055
15:14:32,1.120117,0.135498,-2.987061
15:14:32,0.727295,0.049805,-2.832764
15:14:32,1.4729,-0.603271,-3.548828
15:14:32,1.024658,-0.397949,-4.610596
15:14:32,-0.432861,-0.169922,-4.35083
15:14:32,-0.216797,-0.514893,-3.197021
15:14:32,-0.237793,-0.506104,-2.875244
15:14:32,-0.660645,-0.099609,-3.569336
15:14:32,-0.020264,-0.004639,-0.861084
15:14:32,7.005127,-1.762207,6.526855
15:14:32,6.771484,1.193848,3.44458
15:14:32,2.734375,2.543213,-1.759033
15:14:32,0.225098,1.447021,-3.591064
15:14:32,2.300537,1.108398,0.473877
15:14:32,3.626953,0.073975,1.453857
15:14:32,1.704102,-0.412598,0.013672
15:14:32,0.471436,-0.22168,0.097168
15:14:32,0.684082,-0.347412,0.585205
15:14:32,0.759033,-0.354736,0.802734
15:14:32,0.550537,-0.254639,0.677002
15:14:32,0.572754,-0.285156,0.519287
15:14:32,0.898682,-0.36084,0.456787
15:14:32,0.975098,-0.265869,0.386963
15:14:32,0.895996,-0.056396,0.391357
15:14:32,0.898682,0.128174,0.382813
15:14:32,0.980469,0.283447,0.320557
15:14:32,1.148438,0.538574,0.212158
15:14:32,0.973633,0.530518,0.108643
15:14:32,0.85791,0.299805,0.199463
15:14:32,0.948975,0.001953,0.489502
15:14:32,0.818848,-0.018311,0.435791
15:14:32,0.782471,-0.012939,0.436768
15:14:32,0.888916,0.105713,0.407715
15:14:32,0.890137,0.215576,0.333252
15:14:32,0.904785,0.18457,0.293213
15:14:32,0.915283,0.07666,0.362061
15:14:32,0.825439,0.046875,0.397461
15:14:32,0.818115,0.042236,0.44873
15:14:32,0.846436,0.068604,0.437256
15:14:32,0.893066,0.08667,0.392334
15:14:32,0.913086,0.111816,0.345947
15:14:32,0.949463,0.159424,0.291016
15:14:32,0.996826,0.118896,0.289063
15:14:32,0.986572,0.026611,0.286865
15:14:32,0.962891,0.04126,0.281738
15:14:32,0.924805,0.043701,0.321045
15:14:32,0.909668,0.009521,0.353516
15:14:32,0.916748,0.017334,0.370117
15:14:32,0.910156,0.013672,0.409668
15:14:32,0.883789,-0.015625,0.463379
15:14:32,0.82666,-0.067383,0.490723
15:14:32,0.836182,-0.108154,0.447266
15:14:32,0.862061,-0.140381,0.39624
15:14:32,0.840332,-0.138916,0.39917
15:14:32,0.749512,-0.148438,0.463623
15:14:32,0.50415,-0.414795,0.736328
15:14:32,0.384033,-0.501221,1.127441
15:14:32,0.612549,-0.231201,1.518066
15:14:32,1.335693,0.593994,-0.319092
15:14:32,2.41333,1.443848,1.074219
15:14:32,1.6521,0.868652,1.147461
15:14:32,1.68042,0.859131,1.594238
15:14:32,2.094482,0.833008,1.922852
15:14:32,1.071777,0.400146,-0.134277
15:14:32,4.896484,4.536621,-1.610596
15:14:32,7.999756,4.10083,-0.11377
15:14:32,6.500732,1.14209,-1.234375
15:14:33,3.31543,0.619141,-0.345459
15:14:33,2.06543,0.495605,1.374512
15:14:33,1.415527,0.094727,1.606201
15:14:33,0.675781,0.214844,1.088135
15:14:33,0.235596,0.319092,0.214111
15:14:33,0.033447,0.361084,-0.330811
15:14:33,0.174561,0.668945,-0.162842
15:14:33,0.433838,0.918701,0.138672
15:14:33,0.377441,0.712158,0.232178
15:14:33,0.262451,0.447754,0.283447
15:14:33,0.383789,0.569336,0.332031
15:14:33,0.532715,0.783691,0.206787
15:14:33,0.650146,0.961914,0.071045
15:14:33,0.795166,1.050537,0.054199
15:14:33,0.894775,0.998779,0.101074
15:14:33,1.032715,0.942139,0.224609
15:14:33,1.236816,0.963623,0.300537
15:14:33,1.498779,1.082031,0.226074
15:14:33,2.033691,1.26001,0.134033
15:14:33,2.703369,1.154785,-0.27417
15:14:33,3.25708,0.875732,-0.65332
15:14:33,3.973633,0.317383,-0.977539
15:14:33,3.83374,-0.200439,-1.864258
15:14:33,3.670654,-0.650879,-1.509521
15:14:33,3.134033,-0.76123,-1.274414
15:14:33,2.678223,-0.306396,-1.675781
15:14:33,1.994873,0.339844,-2.206787
15:14:33,1.547607,0.932617,-2.9104
15:14:33,0.839844,1.14917,-3.959717
15:14:33,0.307861,0.426514,-4.153809
15:14:33,1.273438,-0.760498,-3.833008
15:14:33,1.342041,-0.923828,-4.37915
15:14:33,1.297119,-1.25708,-4.057373
15:14:33,0.736572,-1.045898,-2.772461
15:14:33,0.011475,-0.395752,-1.168213
15:14:33,-0.044922,-0.277344,-0.49292
15:14:33,0.678955,-0.056152,0.687256
15:14:33,0.96875,-0.10083,2.247314
15:14:33,0.174316,-1.093262,1.363037
15:14:33,4.241943,2.651611,1.38623
15:14:33,6.758545,6.517334,0.798584
15:14:33,-0.710938,0.316162,-2.966064
15:14:33,1.39502,0.630371,-1.553955
15:14:33,6.328613,-1.324219,1.129395
15:14:33,1.795898,-0.512695,-0.460205
15:14:33,0.272949,-0.029541,-0.063477
15:14:33,0.47998,-0.155029,0.599121
15:14:33,0.595215,-0.277344,0.966553
15:14:33,0.495361,-0.392822,1.10376
15:14:33,0.284668,-0.420898,0.578125
15:14:33,0.290771,-0.420898,0.351807
15:14:33,0.933105,-0.735352,0.692139
15:14:33,1.097656,-0.615479,0.458252
15:14:33,0.774658,-0.358154,0.304932
15:14:33,0.712158,-0.253906,0.409912
15:14:33,0.784912,-0.187256,0.539307
15:14:33,0.772949,-0.014648,0.521973
15:14:33,0.81665,0.141113,0.420654
15:14:33,1.080322,0.537842,0.331543
15:14:33,1.203369,0.823486,0.116455
15:14:33,0.858643,0.675049,-0.144531
15:14:33,0.84082,0.380371,0.153564
15:14:33,1.090332,0.005615,0.535156
15:14:33,0.92041,-0.126953,0.477539
15:14:33,0.711426,-0.067139,0.434814
15:14:33,0.782471,-0.111572,0.50708
15:14:33,0.817139,-0.055664,0.474609
15:14:33,0.831543,0.008545,0.407227
15:14:33,0.949463,0.076416,0.397461
15:14:33,0.956787,0.148438,0.358154
15:14:33,0.956543,0.181885,0.323486
15:14:33,0.970215,0.154785,0.31665
15:14:33,0.9729,0.063477,0.288086
15:14:33,0.974365,0.039795,0.366211
15:14:33,0.885254,0.015869,0.360107
15:14:33,0.906982,0.048096,0.378418
15:14:33,0.905273,0.046631,0.438232
15:14:33,0.844482,0.031494,0.451904
15:14:33,0.874512,0.035156,0.479248
15:14:33,0.851807,-0.034424,0.545898
15:14:33,0.785645,-0.10376,0.499512
15:14:33,0.794922,-0.101318,0.427002
15:14:33,0.89624,-0.060059,0.436523
15:14:33,0.914551,-0.073975,0.473877
15:14:33,0.58374,-0.309814,0.587402
15:14:33,0.347656,-0.377686,1.079346
15:14:33,0.290039,-0.614258,1.695557
15:14:33,1.061279,0.161865,0.305664
15:14:33,2.068359,1.30835,0.004395
15:14:33,1.880371,1.401367,0.714355
15:14:33,1.630615,1.206055,1.310303
15:14:33,1.996582,1.324219,2.056885
15:14:33,1.10376,0.71167,1.295654
15:14:33,1.418213,1.497314,-0.888428
15:14:33,5.880615,4.315918,-0.831299
15:14:33,7.884766,3.297119,-0.503418
15:14:33,4.575439,0.065186,-2.342041
15:14:33,2.642822,0.379395,0.087402
15:14:33,1.614014,0.29834,1.348877
15:14:33,1.314941,0.198486,1.524658
15:14:34,0.533203,0.464111,0.637207
15:14:34,0.16626,0.449707,-0.213623
15:14:34,0.006104,0.586182,-0.647705
15:14:34,0.103271,0.757568,-0.381836
15:14:34,0.235352,0.731201,-0.056641
15:14:34,0.20459,0.448242,0.177979
15:14:34,0.166748,0.314697,0.302979
15:14:34,0.268066,0.358154,0.356934
15:14:34,0.458984,0.626953,0.355957
15:14:34,0.621826,0.874268,0.270752
15:14:34,0.740234,0.944092,0.205322
15:14:34,0.800293,0.824463,0.207275
15:14:34,0.901611,0.737305,0.31958
15:14:34,0.998047,0.659912,0.390625
15:14:34,1.230713,0.711426,0.476074
15:14:34,1.979736,0.709717,0.393555
15:14:34,3.072266,0.633789,0.312012
15:14:34,3.408691,0.67041,-0.33252
15:14:34,3.522461,0.592529,-1.249023
15:14:34,3.469238,0.174072,-1.230957
15:14:34,3.013672,-0.190674,-0.800049
15:14:34,2.888428,-0.393799,-0.963135
15:14:34,2.666016,-0.328125,-1.546631
15:14:34,2.120605,0.375977,-2.10376
15:14:34,1.581299,1.058594,-2.733398
15:14:34,0.734619,1.126953,-3.93335
15:14:34,0.583984,0.28418,-4.293945
15:14:34,2.291504,-0.82959,-3.280762
15:14:34,0.755615,-0.565674,-4.65918
15:14:34,0.571777,-0.832764,-3.840332
15:14:34,-0.188965,-0.476318,-2.508545
15:14:34,-0.087646,-0.454834,-1.708496
15:14:34,-0.323975,-0.170654,-1.861084
15:14:34,0.519287,-0.258789,0.45166
15:14:34,3.113037,-0.470703,5.668701
15:14:34,3.937256,0.786865,1.925781
15:14:34,4.861084,3.399658,-0.452637
15:14:34,2.005859,2.285156,-2.52002
15:14:34,1.242432,1.48877,-1.467773
15:14:34,4.377686,-0.767822,0.555176
15:14:34,2.479004,-0.703125,-0.017578
15:14:34,0.624512,-0.225098,0.016846
15:14:34,0.591309,-0.268311,0.665283
15:14:34,0.588867,-0.296631,1.006592
15:14:34,0.431396,-0.289063,0.889404
15:14:34,0.308838,-0.226074,0.436768
15:14:34,0.490967,-0.17749,0.411133
15:14:34,1.055664,-0.348389,0.627686
15:14:34,1.211914,-0.345215,0.422363
15:14:34,0.872803,-0.055664,0.217285
15:14:34,0.86084,0.062012,0.339111
15:14:34,1.146973,0.41748,0.330078
15:14:34,1.206299,0.75708,0.119629
15:14:34,0.710938,0.497803,0.041504
15:14:34,0.79834,0.416992,0.298828
15:14:34,0.762207,0.169434,0.529541
15:14:34,0.706055,0.00708,0.546631
15:14:34,0.849854,0.014893,0.467041
15:14:34,1.07373,0.038818,0.338379
15:14:34,0.996826,0.129395,0.184326
15:14:34,0.968506,0.156006,0.265625
15:14:34,0.864502,0.126953,0.354004
15:14:34,0.814209,0.095703,0.417725
15:14:34,0.823242,0.092041,0.42627
15:14:34,0.851807,0.102051,0.386475
15:14:34,0.88208,0.148193,0.335205
15:14:34,0.918213,0.161865,0.324219
15:14:34,0.90918,0.136963,0.333252
15:14:34,0.914063,0.105225,0.380371
15:14:34,0.926514,0.07251,0.383301
15:14:34,0.980225,0.052002,0.375977
15:14:34,0.941162,0.033447,0.365479
15:14:34,0.891357,0.03833,0.355469
15:14:34,0.93335,0.048584,0.359375
15:14:34,0.960938,0.05249,0.404053
15:14:34,0.89917,0.032227,0.458496
15:14:34,0.843506,-0.02832,0.491211
15:14:34,0.870361,-0.094238,0.440674
15:14:34,0.94458,-0.094482,0.369873
15:14:34,0.989502,-0.065674,0.403076
15:14:34,0.925781,-0.157715,0.410156
15:14:34,0.767822,-0.310791,0.563965
15:14:34,-0.401123,-0.88623,1.525146
15:14:34,-1.59375,-1.102539,2.517334
15:14:34,2.074219,1.536865,-0.338867
15:14:34,1.568604,0.876953,-0.238281
15:14:34,2.251953,1.704834,0.881836
15:14:34,1.404053,1.365723,0.921387
15:14:34,1.671143,0.906494,1.762207
15:14:34,1.658447,1.24707,2.06543
15:14:34,0.500977,0.279297,-0.664063
15:14:34,4.899658,4.589844,-1.538086
15:14:34,7.999756,2.61377,1.383789
15:14:34,5.892822,0.900146,-1.589111
15:14:34,3.260498,0.621338,-0.755127
15:14:34,2.219482,0.40625,1.133789
15:14:34,1.505127,0.464844,1.394531
15:14:34,0.610352,0.587891,0.580811
15:14:34,0.072266,0.540527,-0.427246
15:14:34,-0.123779,0.422607,-0.769287
15:14:35,-0.093506,0.270508,-0.438477
15:14:35,0.046875,0.13916,0.016113
15:14:35,0.17334,0.078125,0.356445
15:14:35,0.276367,0.061523,0.569092
15:14:35,0.425781,0.172363,0.684814
15:14:35,0.683838,0.503174,0.726318
15:14:35,0.876709,0.886963,0.555176
15:14:35,0.899902,1.079346,0.196777
15:14:35,0.896484,1.050049,0.010742
15:14:35,0.935303,0.895996,0.079102
15:14:35,0.973145,0.682861,0.232666
15:14:35,1.052979,0.573486,0.321045
15:14:35,1.508545,0.779053,0.536621
15:14:35,2.44165,1.093018,0.619385
15:14:35,2.691406,1.100586,0.081055
15:14:35,3.708008,1.125488,-0.192871
15:14:35,3.937256,0.555664,-1.201172
15:14:35,3.737305,-0.000244,-2.468506
15:14:35,3.20752,-0.574707,-2.016602
15:14:35,2.484131,-0.363037,-1.486816
15:14:35,1.743896,0.052002,-2.251221
15:14:35,0.480225,0.414063,-2.818115
15:14:35,1.089355,1.299561,-4.277344
15:14:35,1.262207,0.295166,-4.611572
15:14:35,0.644287,-0.462402,-5.097656
15:14:35,-0.39502,-0.303467,-5.299072
15:14:35,-0.805908,-0.404053,-5.639893
15:14:35,-1.055908,-0.232666,-5.11377
15:14:35,-0.439453,-0.348877,-0.199463
15:14:35,6.009521,-1.303467,7.278809
15:14:35,5.457275,-0.278564,4.011475
15:14:35,0.413818,1.797852,-3.454346
15:14:35,1.361572,1.825439,-2.657715
15:14:35,3.131836,0.574707,-0.271484
15:14:35,4.014404,-0.417969,0.290771
15:14:35,0.871094,-0.352783,-0.200439
15:14:35,0.740234,-0.215332,0.476318
15:14:35,0.664307,-0.237305,0.729004
15:14:35,0.562744,-0.256592,0.947266
15:14:35,0.408203,-0.257324,0.688965
15:14:35,0.450439,-0.224121,0.347412
15:14:35,0.77002,-0.335205,0.589355
15:14:35,1.168213,-0.446045,0.483398
15:14:35,0.946045,-0.192871,0.293213
15:14:35,0.859619,-0.019287,0.342529
15:14:35,0.905029,0.098389,0.393066
15:14:35,1.228271,0.557617,0.304932
15:14:35,1.004883,0.582031,0.099365
15:14:35,0.810059,0.495361,0.050781
15:14:35,0.820313,0.30127,0.343994
15:14:35,0.903809,-0.037842,0.554688
15:14:35,0.94165,-0.162842,0.430908
15:14:35,0.907227,-0.180176,0.339844
15:14:35,0.95459,-0.016846,0.36084
15:14:35,0.943848,0.202148,0.321289
15:14:35,0.856201,0.23291,0.283936
15:14:35,0.86084,0.147217,0.320801
15:14:35,0.908203,0.069336,0.357422
15:14:35,0.892822,0.021729,0.361328
15:14:35,0.868896,0.0625,0.362793
15:14:35,0.878174,0.128418,0.349365
15:14:35,0.901855,0.125488,0.310303
15:14:35,0.937012,0.092041,0.297363
15:14:35,0.956543,0.049561,0.314697
15:14:35,0.961426,0.050293,0.309814
15:14:35,0.953125,0.057861,0.322021
15:14:35,0.875977,0.022949,0.370361
15:14:35,0.881348,0.019775,0.398926
15:14:35,0.922607,0.044189,0.42627
15:14:35,0.886963,-0.006104,0.44165
15:14:35,0.872314,-0.033447,0.468506
15:14:35,0.843506,-0.04834,0.436279
15:14:35,0.872803,-0.109131,0.407471
15:14:35,0.982422,-0.051514,0.348145
15:14:35,0.918213,-0.008789,0.306641
15:14:35,0.851807,-0.108398,0.393066
15:14:35,0.862549,-0.273682,0.536133
15:14:35,0.72876,-0.297852,0.501953
15:14:35,-0.502686,-1.408203,2.298096
15:14:35,0.085449,-0.301025,1.676025
15:14:35,1.624023,0.929932,-0.344971
15:14:35,2.143066,1.346924,0.082275
15:14:35,1.549316,0.861084,1.212402
15:14:35,1.518799,0.54541,1.838135
15:14:35,1.794922,0.267822,1.838623
15:14:35,1.041016,0.093994,0.751709
15:14:35,3.089844,2.831299,-0.889404
15:14:35,7.514648,5.782471,-1.204102
15:14:35,7.393311,3.401367,-1.153564
15:14:35,3.849854,0.311035,-1.087646
15:14:35,2.078613,0.568359,0.649414
15:14:35,1.486084,0.221436,1.387207
15:14:35,0.779053,0.046875,0.944336
15:14:35,0.313965,0.110596,0.347412
15:14:35,0.108398,0.091064,-0.072021
15:14:35,0.047363,0.063721,0.008789
15:14:35,0.178223,-0.009521,0.131104
15:14:35,0.313477,0.013672,0.437988
15:14:35,0.587402,0.189941,0.85791
15:14:35,0.782715,0.381104,0.661133
15:14:36,0.672852,0.553223,0.202637
15:14:36,0.716553,0.823242,-0.104492
15:14:36,0.977295,1.218994,-0.205322
15:14:36,1.172607,1.43042,-0.303223
15:14:36,1.161377,1.262939,-0.324463
15:14:36,1.172119,0.964111,-0.15332
15:14:36,1.187256,0.759277,0.00415
15:14:36,1.416504,0.647705,0.216797
15:14:36,1.992188,0.540283,0.390381
15:14:36,2.830078,0.724365,0.366455
15:14:36,3.399414,1.130859,-0.213867
15:14:36,3.225342,1.463379,-1.231201
15:14:36,2.987061,1.214355,-1.564697
15:14:36,3.006348,0.513428,-1.258057
15:14:36,3.020264,-0.216553,-1.383789
15:14:36,2.073486,-0.378662,-2.20459
15:14:36,1.432129,-0.322266,-2.70166
15:14:36,1.858154,-0.284424,-3.008057
15:14:36,1.513672,-0.074707,-3.857666
15:14:36,1.198486,-0.318604,-4.230957
15:14:36,0.865234,-0.262695,-4.259033
15:14:36,0.927002,-0.71582,-3.86792
15:14:36,0.804688,-0.981689,-3.219971
15:14:36,0.924805,-1.091797,-1.967285
15:14:36,0.586914,-0.4104,-0.386475
15:14:36,0.970459,-0.069336,0.530762
15:14:36,1.444092,0.700684,0.587646
15:14:36,0.0896,-0.1521,0.325195
15:14:36,-0.115967,-0.233887,0.360107
15:14:36,0.704834,-0.571289,0.01123
15:14:36,7.075928,7.114258,5.54248
15:14:36,2.117676,2.574463,0.048584
15:14:36,-0.186768,1.670166,-2.518799
15:14:36,0.270752,1.011963,-1.955566
15:14:36,1.916504,1.425781,0.225342
15:14:36,4.012695,-1.210693,1.73877
15:14:36,2.261719,-1.170898,-0.162842
15:14:36,0.700928,-0.220947,-0.766357
15:14:36,0.722656,-0.444336,0.06958
15:14:36,0.865234,-0.616699,0.858887
15:14:36,0.632568,-0.500732,1.085449
15:14:36,0.293701,-0.404053,0.648438
15:14:36,0.21167,-0.290771,0.32373
15:14:36,0.5896,-0.346436,0.535156
15:14:36,1.099854,-0.489258,0.623047
15:14:36,1.016113,-0.345703,0.249756
15:14:36,0.804688,-0.182861,0.240723
15:14:36,0.878662,-0.041748,0.41626
15:14:36,1.17041,0.462158,0.382324
15:14:36,1.495361,1.079102,0.222412
15:14:36,0.619873,0.661621,-0.171143
15:14:36,0.657471,0.591797,-0.005615
15:14:36,0.812256,0.487793,0.447266
15:14:36,0.657471,0.167725,0.5271
15:14:36,0.629395,0.042725,0.543945
15:14:36,0.785156,0.093018,0.452148
15:14:36,1.085693,-0.013428,0.460205
15:14:36,1.087891,0.008789,0.188477
15:14:36,0.951172,0.07373,0.170898
15:14:36,0.955566,0.236328,0.314941
15:14:36,0.75415,0.201904,0.4104
15:14:36,0.806396,0.195313,0.442871
15:14:36,0.987549,0.136963,0.41333
15:14:36,1.008545,0.059814,0.33374
15:14:36,0.949951,0.040283,0.291748
15:14:36,0.933594,0.056885,0.304199
15:14:36,0.944092,0.066162,0.374268
15:14:36,0.912354,0.060059,0.425537
15:14:36,0.883057,0.028076,0.464355
15:14:36,0.847168,-0.033447,0.505859
15:14:36,0.820068,-0.085449,0.472412
15:14:36,0.874756,-0.0979,0.427002
15:14:36,0.959229,-0.087646,0.43457
15:14:36,0.986572,-0.091309,0.47876
15:14:36,0.823486,-0.206299,0.478516
15:14:36,-0.044434,-0.770752,1.274902
15:14:36,-1.290771,-1.232666,2.344727
15:14:36,-0.156738,-0.000977,0.210693
15:14:36,2.782471,1.530029,-1.100098
15:14:36,1.822266,1.632568,0.711914
15:14:36,1.552734,1.489502,0.935303
15:14:36,1.77832,1.420654,1.621338
15:14:36,1.664063,1.013916,1.746582
15:14:36,0.949951,0.712158,0.26416
15:14:36,3.869385,2.702148,-1.42334
15:14:36,7.868164,2.899658,2.075684
15:14:36,6.180908,0.81543,-2.436523
15:14:36,3.946289,0.577148,-1.009766
15:14:36,2.50415,0.447998,1.14502
15:14:36,1.663086,0.278564,1.477539
15:14:36,0.780518,0.675049,0.905518
15:14:36,0.166504,0.755127,-0.375732
15:14:36,-0.157959,0.744141,-1.092773
15:14:36,-0.187988,0.800293,-0.786865
15:14:36,0.017822,0.73291,-0.107666
15:14:36,0.19458,0.495361,0.418945
15:14:36,0.169434,0.28418,0.587891
15:14:36,0.140625,0.332275,0.466064
15:14:36,0.327637,0.706055,0.330322
15:14:36,0.565918,1.099609,0.200439
15:14:37,0.654053,1.179199,0.043457
15:14:37,0.711914,1.029053,0.086426
15:14:37,0.849854,0.865479,0.291504
15:14:37,0.98999,0.842773,0.414063
15:14:37,1.158203,0.97583,0.42334
15:14:37,1.381348,1.180664,0.349121
15:14:37,1.671631,1.359375,0.175049
15:14:37,2.233398,1.570557,-0.153076
15:14:37,3.27002,1.517334,-0.546875
15:14:37,4.490234,0.898193,-0.892822
15:14:37,4.920898,-0.176514,-2.52832
15:14:37,3.916992,-0.421875,-2.420166
15:14:37,2.750977,-0.223877,-1.705078
15:14:37,1.576172,0.167725,-1.826416
15:14:37,0.804932,0.551758,-2.714111
15:14:37,0.535156,0.719238,-3.932129
15:14:37,-0.066406,0.365234,-4.64502
15:14:37,1.270264,-0.507813,-4.313477
15:14:37,1.420654,-0.783203,-4.619385
15:14:37,1.111816,-1.016846,-3.993652
15:14:37,0.184326,-0.648682,-2.57373
15:14:37,-0.247314,-0.305908,-1.713379
15:14:37,-0.273926,-0.182373,-1.355469
15:14:37,0.271484,-0.239014,0.660645
15:14:37,0.776855,-0.930908,3.235596
15:14:37,5.486084,0.460449,3.311768
15:14:37,7.675049,3.168457,1.105469
15:14:37,0.751709,2.115967,-2.779297
15:14:37,0.224365,0.28125,-3.139893
15:14:37,5.296875,0.428223,0.327637
15:14:37,2.173096,-0.314209,0.181152
15:14:37,-0.041016,-0.175781,0.306641
15:14:37,0.369141,-0.221191,0.952637
15:14:37,0.513428,-0.25,1.01709
15:14:37,0.466064,-0.179199,0.905273
15:14:37,0.269531,-0.076416,0.522705
15:14:37,0.296875,-0.037354,0.391357
15:14:37,0.55835,-0.000488,0.545898
15:14:37,1.138672,-0.047119,0.405518
15:14:37,0.937744,-0.015625,0.515625
15:14:37,0.815674,0.012695,0.363037
15:14:37,0.842773,0.046387,0.410645
15:14:37,0.821533,0.217041,0.503418
15:14:37,0.756592,0.52002,0.558838
15:14:37,0.753418,0.723877,0.464355
15:14:37,0.811035,0.699463,0.198975
15:14:37,0.856445,0.553223,0.062012
15:14:37,0.854492,0.41748,0.22168
15:14:37,0.835205,0.305908,0.430176
15:14:37,0.749756,0.205566,0.553955
15:14:37,0.698486,0.129639,0.616943
15:14:37,0.760986,0.080566,0.576904
15:14:37,0.816162,0.059814,0.49292
15:14:37,0.800781,0.218018,0.447266
15:14:37,0.809082,0.432617,0.438477
15:14:37,0.875244,0.403809,0.376221
15:14:37,0.916992,0.269775,0.27417
15:14:37,0.953369,0.243164,0.310303
15:14:37,0.923584,0.23877,0.425537
15:14:37,0.798584,0.219482,0.467285
15:14:37,0.854492,0.234619,0.465576
15:14:37,0.796875,0.202881,0.457031
15:14:37,0.786865,0.189209,0.490234
15:14:37,1.149902,0.270996,0.503662
15:14:37,0.509766,0.109863,0.514648
15:14:37,0.626465,0.112061,0.532959
15:14:37,1.008301,0.153564,0.744629
15:14:37,0.406494,0.031494,0.375
15:14:37,0.934326,0.075928,0.749756
15:14:37,0.868896,0.073242,0.359863
15:14:37,0.65625,0.13916,0.338623
15:14:37,0.69165,0.371582,0.258789
15:14:37,-0.619629,-0.901855,2.352539
15:14:37,-1.084229,-0.246826,1.782471
15:14:37,-0.4021,0.164063,-0.032227
15:14:37,2.713379,2.26001,0.442627
15:14:37,1.695313,1.231689,-0.254883
15:14:37,0.738037,0.289307,-0.237061
15:14:37,1.953613,0.722656,0.687256
15:14:37,1.50708,0.553223,0.495117
15:14:37,2.728271,1.69165,-0.696289
15:14:37,6.572021,1.752441,-2.538086
15:14:37,7.528564,1.048584,-2.833984
15:14:37,5.06958,1.69458,-0.539063
15:14:37,2.672363,1.291016,1.18457
15:14:37,1.430664,0.79541,1.120605
15:14:37,0.768311,1.067627,0.669189
15:14:37,0.297852,1.20459,-0.120605
15:14:37,0.064453,1.139893,-0.770996
15:14:37,-0.000977,1.084961,-0.523438
15:14:37,0.017334,0.848145,-0.231934
15:14:37,0.036621,0.637207,0.057617
15:14:37,0.066162,0.440186,0.199707
15:14:37,0.080322,0.351318,0.152344
15:14:37,0.114014,0.3479,0.123535
15:14:37,0.247559,0.512695,0.109863
15:14:37,0.409668,0.720215,0.05127
15:14:37,0.529541,0.846436,0.003174
15:14:37,0.64624,0.91333,-0.008789
15:14:37,0.780029,0.946045,0.069336
