Time,Accel-X (g), Accel-Y (g), Accel-Z (g)
18:20:20,0.980225,-0.213867,0.356201
18:20:20,1.021729,-0.331299,0.358643
18:20:20,1.051025,-0.434082,0.363281
18:20:20,1.07373,-0.533691,0.420898
18:20:20,0.876709,-0.53125,0.327393
18:20:20,0.880615,-0.517334,0.477295
18:20:20,0.738037,-0.48877,0.484131
18:20:20,0.621094,-0.460205,0.496826
18:20:20,0.593994,-0.41748,0.511963
18:20:20,0.585693,-0.374023,0.528809
18:20:20,0.547607,-0.30835,0.531738
18:20:20,1.205811,-0.304932,0.585938
18:20:20,1.418945,-0.265625,0.230469
18:20:20,1.186279,-0.128174,0.1521
18:20:20,0.973877,0.145752,0.550537
18:20:20,0.658447,0.133545,0.508545
18:20:20,0.298828,-0.468994,1.37793
18:20:20,-0.515381,-0.971436,2.029785
18:20:20,-0.306885,-0.452881,1.252197
18:20:20,0.159668,-0.103027,0.887207
18:20:20,0.737793,0.133545,0.858643
18:20:20,1.246094,0.621094,0.232422
18:20:20,1.568604,-0.262451,0.901611
18:20:20,2.768066,-0.280518,2.264648
18:20:20,2.515381,1.554932,1.966064
18:20:20,3.050537,1.378418,2.263428
18:20:20,3.258057,0.706055,1.908936
18:20:20,4.289551,1.635986,0.083984
18:20:20,6.382813,3.098633,1.279541
18:20:20,1.694092,1.292725,-0.391846
18:20:20,2.116211,0.519775,1.305664
18:20:20,1.133789,-0.012939,1.476563
18:20:20,0.531006,-0.102783,1.06958
18:20:20,0.234863,-0.264893,1.202881
18:20:20,0.045654,-0.537598,1.262207
18:20:20,-0.182861,-0.531494,0.429688
18:20:20,-0.292236,-0.55127,0.177002
18:20:20,-0.126465,-0.655029,0.552246
18:20:20,0.059814,-0.582764,0.619141
18:20:20,0.189209,-0.439697,0.451416
18:20:20,0.663818,-0.439941,0.814941
18:20:20,1.310059,-0.475098,0.931152
18:20:20,1.516113,-0.355957,0.416992
18:20:20,1.761963,-0.292236,0.130371
18:20:20,2.068848,-0.337646,0.075684
18:20:20,2.2146,-0.425049,0.010986
18:20:20,2.257568,-0.513672,-0.059082
18:20:20,2.263184,-0.576416,-0.11377
18:20:20,2.342529,-0.655273,0.058838
18:20:20,2.624512,-0.759766,0.346436
18:20:20,2.944336,-0.749023,0.316162
18:20:20,3.061035,-0.523926,-0.001221
18:20:20,3.030029,-0.123291,-0.368896
18:20:20,2.809326,0.423584,-0.867432
18:20:20,2.280762,1.105225,-1.641357
18:20:20,1.662842,1.763916,-2.639648
18:20:20,1.208008,1.894043,-3.312256
18:20:20,1.191406,1.514404,-3.048584
18:20:20,1.536377,1.302002,-2.696533
18:20:20,1.570801,1.22998,-3.106201
18:20:20,1.254883,1.17041,-3.485596
18:20:20,0.341797,0.521973,-3.317139
18:20:20,0.618652,0.150146,-1.406738
18:20:20,4.14502,-0.339111,3.533447
18:20:20,1.692139,-0.581055,2.0354
18:20:20,-0.102295,-0.536621,0.170654
18:20:20,0.32959,-1.285889,1.029053
18:20:20,0.147949,-1.030029,1.490479
18:20:20,0.415039,-0.813965,0.854004
18:20:20,1.803711,-1.197266,1.179688
18:20:20,1.49292,-0.969727,-0.335449
18:20:20,3.704834,-0.936523,-0.266602
18:20:20,3.727783,-0.277832,-0.853516
18:20:20,1.908936,0.282959,-1.106201
18:20:20,1.599121,0.195801,0.150879
18:20:20,1.18335,0.079346,0.643799
18:20:20,0.473877,0.0979,0.491943
18:20:20,0.440186,0.153809,0.70166
18:20:20,0.479492,0.254883,0.868896
18:20:20,0.349609,0.352783,0.821045
18:20:20,0.229248,0.425049,0.686035
18:20:20,0.159912,0.50293,0.608154
18:20:20,0.153809,0.578369,0.660156
18:20:20,0.215088,0.619385,0.686035
18:20:20,0.342529,0.607422,0.650635
18:20:20,0.476563,0.583008,0.626953
18:20:20,0.574463,0.533936,0.558838
18:20:20,0.665771,0.487061,0.509521
18:20:20,0.768555,0.421875,0.510498
18:20:20,0.835693,0.330078,0.46167
18:20:20,0.862793,0.241455,0.418213
18:20:20,0.907471,0.153076,0.390625
18:20:20,0.952148,0.036621,0.420898
18:20:20,0.95166,-0.109863,0.435791
18:20:20,0.981445,-0.246094,0.454102
18:20:20,0.984619,-0.354492,0.422852
18:20:20,0.989502,-0.449219,0.438721
18:20:20,0.961914,-0.525879,0.513184
18:20:20,0.84082,-0.515869,0.537354
18:20:21,0.827881,-0.488037,0.73291
18:20:21,0.612061,-0.340332,0.420166
18:20:21,0.640869,-0.230225,0.53418
18:20:21,0.643555,-0.141357,0.583496
18:20:21,0.562012,-0.079346,0.508545
18:20:21,0.848389,-0.083496,0.583252
18:20:21,1.229248,-0.093262,0.445068
18:20:21,1.115234,-0.11499,0.244141
18:20:21,1.007568,-0.067627,0.456055
18:20:21,0.917969,0.047119,0.562256
18:20:21,0.7229,0.083984,0.460938
18:20:21,0.52832,-0.094482,0.864258
18:20:21,-0.256348,-0.462158,1.656982
18:20:21,-0.253662,-0.339844,1.628174
18:20:21,0.457275,-0.028564,0.674316
18:20:21,0.05249,-0.281006,1.258057
18:20:21,0.873779,0.587646,0.870605
18:20:21,1.393311,0.5625,0.476563
18:20:21,1.720215,-0.3125,1.066162
18:20:21,1.616943,0.067871,2.539063
18:20:21,1.15625,-0.147461,1.854492
18:20:21,3.424072,-0.029541,1.72876
18:20:21,3.654785,0.725586,1.601563
18:20:21,6.750244,1.568848,1.258301
18:20:21,5.168457,2.657471,-0.199463
18:20:21,2.483154,1.987549,-0.597656
18:20:21,1.812256,0.687744,1.126709
18:20:21,1.080322,0.116455,1.648682
18:20:21,0.356689,0.092773,1.015381
18:20:21,0.148438,-0.160156,1.429199
18:20:21,-0.038818,-0.337646,1.152832
18:20:21,-0.438721,-0.256104,0.168213
18:20:21,-0.385742,-0.29834,0.359375
18:20:21,0.023926,-0.30957,0.824707
18:20:21,0.296631,-0.174072,0.759033
18:20:21,0.328857,-0.069824,0.578857
18:20:21,1.016602,0.082764,1.07251
18:20:21,1.795654,0.267578,1.181152
18:20:21,1.741211,0.350098,0.323975
18:20:21,1.71875,0.376465,-0.122559
18:20:21,2.115723,0.339111,-0.222656
18:20:21,2.304199,0.18335,-0.51001
18:20:21,2.166748,-0.112549,-0.547852
18:20:21,2.45459,-0.494141,0.097412
18:20:21,2.805176,-0.706299,0.686279
18:20:21,2.942627,-0.515137,0.562256
18:20:21,2.826172,-0.003418,-0.26416
18:20:21,2.66333,0.272217,-0.830078
18:20:21,2.5625,0.466064,-1.061768
18:20:21,2.19751,0.757324,-1.353027
18:20:21,1.378662,0.845703,-1.74707
18:20:21,1.143799,0.815186,-1.840332
18:20:21,1.02124,0.55249,-2.091309
18:20:21,1.343506,0.302979,-2.247803
18:20:21,1.655273,0.397217,-2.519531
18:20:21,1.580078,0.787842,-3.135742
18:20:21,1.615967,1.078125,-3.417725
18:20:21,0.444824,0.422119,-3.19043
18:20:21,-0.084229,0.16748,-2.080566
18:20:21,3.128418,-0.265625,2.777588
18:20:21,2.380859,-0.621826,2.984131
18:20:21,0.206543,-0.609375,0.768066
18:20:21,0.187256,-0.583008,0.318115
18:20:21,0.712402,-0.717529,1.63916
18:20:21,1.061523,-0.727539,1.800537
18:20:21,0.907715,-0.543213,0.334717
18:20:21,1.087891,-0.477783,-0.361572
18:20:21,4.007568,-0.30957,0.61499
18:20:21,3.722656,0.150635,-0.67334
18:20:21,1.325684,0.693848,-2.095703
18:20:21,2.625488,0.699707,0.178467
18:20:21,0.928223,0.034424,0.230469
18:20:21,0.801025,-0.032715,0.649658
18:20:21,0.731689,-0.008789,0.834229
18:20:21,0.534912,0.01416,0.736816
18:20:21,0.367432,-0.023926,0.80542
18:20:21,0.277344,-0.051514,0.790039
18:20:21,0.227539,-0.06665,0.717529
18:20:21,0.244385,-0.095459,0.623535
18:20:21,0.42041,-0.094238,0.70752
18:20:21,0.70166,-0.109375,0.765869
18:20:21,0.863037,-0.08252,0.605469
18:20:21,1.026611,0.006104,0.454346
18:20:21,1.171631,0.049072,0.351318
18:20:21,1.229492,0.145996,0.174072
18:20:21,1.134766,0.259277,0.304199
18:20:21,0.988037,0.322021,0.382568
18:20:21,0.811035,0.332275,0.401123
18:20:21,0.710693,0.321289,0.493408
18:20:21,0.639893,0.289795,0.588379
18:20:21,0.547363,0.281006,0.558594
18:20:21,0.54126,0.276123,0.585938
18:20:21,0.561279,0.245605,0.601563
18:20:21,0.610107,0.230713,0.567871
18:20:21,0.757813,0.244385,0.508545
18:20:21,0.866943,0.21167,0.435791
18:20:21,0.891846,0.099854,0.416992
18:20:21,0.923584,-0.022217,0.412109
18:20:21,0.94043,-0.085205,0.414307
18:20:21,0.937988,-0.104248,0.443848
18:20:21,0.976807,-0.146973,0.477295
18:20:22,1.023682,-0.204346,0.471191
18:20:22,0.947021,-0.225342,0.391113
18:20:22,0.822021,-0.24292,0.527588
18:20:22,0.78833,-0.273193,0.667969
18:20:22,0.732178,-0.247314,0.692383
18:20:22,0.880127,-0.075195,0.624268
18:20:22,0.789551,0.140137,0.380127
18:20:22,0.76709,0.347412,0.516113
18:20:22,0.793701,0.200684,0.87915
18:20:22,-0.213379,-0.381104,1.955322
18:20:22,-0.404785,-0.597412,1.32666
18:20:22,0.150635,-0.660645,1.099365
18:20:22,0.209961,-0.317139,0.983643
18:20:22,1.056885,0.543945,0.938232
18:20:22,2.047607,-0.486328,1.01123
18:20:22,0.533447,-0.22998,0.398682
18:20:22,1.900635,0.452881,1.428955
18:20:22,2.316895,0.338135,1.687256
18:20:22,4.451172,-0.297119,2.840088
18:20:22,2.263184,-0.350098,1.766602
18:20:22,4.903809,2.819824,2.005615
18:20:22,6.020752,4.697266,0.993408
18:20:22,1.89917,2.64624,-0.718506
18:20:22,1.041992,0.675049,0.910156
18:20:22,1.273193,0.192139,1.838623
18:20:22,0.433594,-0.05249,0.948242
18:20:22,0.105713,-0.335205,0.773438
18:20:22,0.098145,-0.536621,0.960205
18:20:22,0.013428,-0.616211,0.869873
18:20:22,0.0979,-0.498535,0.665527
18:20:22,0.477295,-0.409424,0.816162
18:20:22,0.959961,-0.299316,0.807861
18:20:22,1.215576,-0.09668,0.423584
18:20:22,1.3396,0.131592,0.200195
18:20:22,1.561279,0.336426,0.199219
18:20:22,1.765625,0.530273,0.153564
18:20:22,1.774658,0.758057,-0.065186
18:20:22,1.953613,1.049072,-0.269043
18:20:22,1.832764,0.980225,-0.379395
18:20:22,1.751709,0.586914,-0.096924
18:20:22,1.762207,0.272949,0.196289
18:20:22,2.087402,0.070801,0.556152
18:20:22,2.595947,0.068359,0.769775
18:20:22,3.125244,0.594482,0.530518
18:20:22,2.81958,1.159424,-0.437256
18:20:22,2.229492,1.128662,-1.221924
18:20:22,2.268311,0.617432,-1.120117
18:20:22,2.297607,0.233643,-1.150879
18:20:22,2.044922,0.154053,-1.641357
18:20:22,1.481445,0.17749,-2.221191
18:20:22,1.052246,0.182617,-2.790039
18:20:22,1.131836,0.215332,-3.186523
18:20:22,1.323975,0.491211,-3.44458
18:20:22,1.573242,0.801025,-3.530762
18:20:22,1.351318,0.702148,-2.754639
18:20:22,1.356689,0.468018,-0.931885
18:20:22,2.483887,0.034424,2.005371
18:20:22,1.723877,-0.32251,3.04248
18:20:22,-0.22876,-0.358643,0.425049
18:20:22,-0.102783,-1.323486,0.416016
18:20:22,-0.57666,-1.44458,0.864258
18:20:22,0.553467,-1.337158,0.849854
18:20:22,1.895508,-1.869141,2.270996
18:20:22,1.773926,-1.274414,-0.002441
18:20:22,1.972168,-0.644287,-0.955566
18:20:22,5.128906,-0.098877,0.735596
18:20:22,1.501953,0.781738,-1.960693
18:20:22,2.567139,1.578125,-0.589844
18:20:22,1.233154,0.803223,-0.287598
18:20:22,0.739502,0.233398,0.550049
18:20:22,0.818359,0.110352,1.100586
18:20:22,0.477539,0.117432,0.962402
18:20:22,0.322754,0.148682,0.796387
18:20:22,0.294922,0.16748,0.796875
18:20:22,0.230225,0.190674,0.753174
18:20:22,0.147217,0.161865,0.714844
18:20:22,0.158447,0.10791,0.73877
18:20:22,0.222168,0.077393,0.754639
18:20:22,0.277832,0.08374,0.742676
18:20:22,0.335693,0.088867,0.714844
18:20:22,0.592285,0.157471,0.786133
18:20:22,0.823975,0.241943,0.682373
18:20:22,1.047119,0.460938,0.412354
18:20:22,1.235352,0.696045,0.113281
18:20:22,1.21875,0.552734,0.022461
18:20:22,1.169922,0.212402,0.326416
18:20:22,0.975342,-0.037109,0.524902
18:20:22,0.7854,-0.172119,0.617188
18:20:22,0.729736,-0.192871,0.639648
18:20:22,0.708984,-0.166016,0.609619
18:20:22,0.674072,-0.156006,0.658203
18:20:22,0.633789,-0.147705,0.702881
18:20:22,0.647949,-0.078857,0.650146
18:20:22,0.711914,-0.001221,0.635498
18:20:22,0.75415,0.087646,0.585693
18:20:22,0.783203,0.159424,0.496826
18:20:22,0.827148,0.202881,0.468994
18:20:22,0.894531,0.17627,0.469238
18:20:22,0.729004,0.103516,0.449219
18:20:22,0.765381,0.042725,0.519531
18:20:23,0.702881,-0.016602,0.560791
18:20:23,0.644531,-0.082275,0.541016
18:20:23,0.648193,-0.102051,0.597412
18:20:23,1.456543,-0.149658,0.785889
18:20:23,1.314209,-0.111328,0.129639
18:20:23,0.852539,-0.219482,0.162109
18:20:23,0.666504,-0.35791,0.993652
18:20:23,-0.317627,-0.735352,2.138916
18:20:23,-0.299805,-0.333496,1.716553
18:20:23,-0.064209,-0.058838,1.259766
18:20:23,0.091064,-0.152344,0.816895
18:20:23,0.599609,0.08252,1.103271
18:20:23,1.319336,0.242676,0.466797
18:20:23,2.018311,0.070557,0.087402
18:20:23,1.97583,0.000244,2.208984
18:20:23,2.143311,0.289551,2.069824
18:20:23,3.021973,0.182617,1.841797
18:20:23,3.00293,0.002686,1.342285
18:20:23,3.552246,1.808594,1.244385
18:20:23,7.566895,4.765137,3.205811
18:20:23,1.371338,1.805908,-0.932129
18:20:23,1.522949,0.922607,1.165527
18:20:23,1.17749,0.274658,1.787598
18:20:23,0.429443,0.111572,1.065918
18:20:23,0.126221,-0.125732,1.064697
18:20:23,0.046875,-0.359131,1.15625
18:20:23,-0.164795,-0.402832,0.539063
18:20:23,-0.170166,-0.466309,0.455078
18:20:23,0.007813,-0.451416,0.682373
18:20:23,0.207031,-0.340088,0.659912
18:20:23,0.456299,-0.231445,0.681152
18:20:23,1.040527,-0.138672,0.939209
18:20:23,1.465576,0.043701,0.724609
18:20:23,1.647461,0.213379,0.391113
18:20:23,1.980713,0.354736,0.240479
18:20:23,2.248779,0.512939,-0.001709
18:20:23,2.333496,0.524902,-0.294434
18:20:23,2.18335,0.300293,-0.402344
18:20:23,2.0354,-0.015625,-0.12793
18:20:23,2.349854,-0.228271,0.535889
18:20:23,2.94458,-0.036621,1.01001
18:20:23,3.369629,0.782715,0.633301
18:20:23,2.866211,1.447266,-0.591064
18:20:23,1.951904,1.467529,-1.462402
18:20:23,2.151855,1.23584,-1.390137
18:20:23,2.283203,0.636719,-1.564941
18:20:23,1.387695,0.126465,-2.221436
18:20:23,1.075439,0.020264,-2.81958
18:20:23,1.693604,0.030518,-3.054199
18:20:23,1.865723,0.368164,-3.196289
18:20:23,0.589355,0.77832,-3.433105
18:20:23,-0.50415,1.095947,-4.390625
18:20:23,0.255859,1.556885,-2.728271
18:20:23,4.462158,-0.044189,3.3125
18:20:23,2.574463,-1.409912,2.686523
18:20:23,-0.36084,-0.462158,-1.20166
18:20:23,0.071533,-0.962891,-1.131104
18:20:23,4.250732,-3.49585,4.509766
18:20:23,0.95874,-2.10376,-0.372314
18:20:23,1.560791,-2.615967,-0.2146
18:20:23,1.132813,-1.744385,0.312744
18:20:23,2.641113,-1.649902,2.089355
18:20:23,1.187256,-0.665039,0.273926
18:20:23,0.466553,0.040283,-0.656738
18:20:23,1.934082,0.378906,-0.272705
18:20:23,2.154785,1.145508,-0.332764
18:20:23,1.48291,1.774658,-0.686035
18:20:23,0.943848,1.217773,-0.196533
18:20:23,0.815674,0.536865,0.776855
18:20:23,0.629395,0.369629,0.885254
18:20:23,0.277832,0.231934,0.575439
18:20:23,0.282227,0.140381,0.676025
18:20:23,0.312012,0.056641,0.865967
18:20:23,0.248535,-0.019775,0.804199
18:20:23,0.188232,-0.086914,0.627197
18:20:23,0.209961,-0.125,0.657471
18:20:23,0.270752,-0.145752,0.769043
18:20:23,0.427979,-0.139893,0.859131
18:20:23,0.708008,-0.111572,0.847168
18:20:23,0.889648,-0.022461,0.596924
18:20:23,1.041016,0.077881,0.369385
18:20:23,1.153809,0.112549,0.268066
18:20:23,1.381836,0.108643,0.209229
18:20:23,1.2771,0.093018,0.096191
18:20:23,1.101563,0.064209,0.382568
18:20:23,0.893799,0.005371,0.493164
18:20:23,0.734375,-0.039551,0.518799
18:20:23,0.684326,-0.086914,0.656494
18:20:23,0.596924,-0.107666,0.661377
18:20:23,0.529541,-0.107666,0.659668
18:20:23,0.571289,-0.121338,0.644531
18:20:23,0.622559,-0.123535,0.556152
18:20:23,0.648682,-0.126709,0.447998
18:20:23,0.925293,-0.202148,0.918457
18:20:23,0.745361,-0.126221,0.541016
18:20:23,1.002686,-0.080078,0.422363
18:20:23,1.243652,-0.068848,0.397949
18:20:23,1.049072,-0.100586,0.344482
18:20:23,0.837646,-0.093506,0.429443
18:20:24,0.699219,-0.074219,0.572021
18:20:24,0.661621,-0.16748,0.772461
18:20:24,0.652588,-0.178467,0.779053
18:20:24,0.523438,-0.302734,0.832764
18:20:24,0.085449,-0.799561,1.23877
18:20:24,-0.245605,-1.044922,1.796143
18:20:24,-0.297607,-0.527344,1.284912
18:20:24,0.183105,0.578369,1.009766
18:20:24,1.265381,1.974365,0.903076
18:20:24,0.286865,1.907471,-0.615234
18:20:24,2.797363,0.20874,1.5
18:20:24,3.234375,0.200195,1.918457
18:20:24,3.887451,-0.003906,2.312744
18:20:24,2.833496,0.166504,1.792969
18:20:24,2.721924,0.501465,0.704834
18:20:24,7.674561,2.508545,3.009521
18:20:24,2.694336,1.726563,0.02832
18:20:24,2.171143,1.314697,0.843994
18:20:24,1.556641,0.501221,1.501221
18:20:24,0.772217,0.168945,1.323242
18:20:24,0.400635,0.094482,1.035889
18:20:24,0.223877,-0.134033,1.257813
18:20:24,0.072998,-0.343506,0.958496
18:20:24,-0.12207,-0.382568,0.364014
18:20:24,-0.092529,-0.456787,0.40625
18:20:24,0.096191,-0.478271,0.623047
18:20:24,0.311279,-0.433838,0.70166
18:20:24,0.745361,-0.420166,0.870361
18:20:24,1.275391,-0.372559,0.810547
18:20:24,1.586426,-0.290039,0.513184
18:20:24,1.788086,-0.25,0.328857
18:20:24,1.989258,-0.244629,0.191162
18:20:24,2.130859,-0.261475,0.054199
18:20:24,2.230225,-0.279785,-0.026367
18:20:24,2.358154,-0.302734,0.037598
18:20:24,2.644531,-0.391113,0.314209
18:20:24,2.825928,-0.352295,0.426514
18:20:24,2.867432,-0.075195,0.231201
18:20:24,2.864746,0.211182,-0.045654
18:20:24,2.6604,0.471436,-0.528809
18:20:24,2.529297,0.788086,-1.047607
18:20:24,1.98584,1.027588,-1.672363
18:20:24,1.036621,0.970947,-2.58374
18:20:24,1.137451,1.092285,-2.918701
18:20:24,1.574219,1.209229,-3.091553
18:20:24,2.044189,1.343018,-3.353516
18:20:24,1.940918,1.272461,-3.845703
18:20:24,1.44873,0.878662,-4.073975
18:20:24,-0.425781,0.401855,-4.072266
18:20:24,3.391357,0.046143,0.213623
18:20:24,3.399414,-0.669922,2.936035
18:20:24,0.198975,-0.480225,0.517578
18:20:24,-0.279297,-1.785889,-0.17041
18:20:24,-0.585205,-1.981689,0.587158
18:20:24,-0.028076,-1.716064,1.655273
18:20:24,2.342773,-1.895508,2.256836
18:20:24,1.347168,-1.267578,-0.479492
18:20:24,3.124756,-0.817627,-0.702637
18:20:24,4.758057,-0.214844,-0.343262
18:20:24,2.335449,0.849609,-1.733398
18:20:24,2.006348,1.192627,-0.784668
18:20:24,1.421387,0.712646,0.001221
18:20:24,0.62207,0.054688,0.550781
18:20:24,0.762695,0.116211,1.019287
18:20:24,0.44873,0.148682,0.875
18:20:24,0.244873,0.18457,0.732178
18:20:24,0.272949,0.236084,0.793701
18:20:24,0.188477,0.296143,0.806885
18:20:24,0.052734,0.335205,0.734375
18:20:24,0.022461,0.343262,0.685303
18:20:24,0.154297,0.327148,0.720703
18:20:24,0.239258,0.326904,0.717529
18:20:24,0.297363,0.296875,0.6875
18:20:24,0.515869,0.339111,0.750732
18:20:24,0.759033,0.427734,0.67627
18:20:24,0.862549,0.485352,0.449951
18:20:24,1.0979,0.601807,0.394287
18:20:24,1.097168,0.585693,0.087646
18:20:24,1.164551,0.405273,0.19165
18:20:24,1.047607,0.135986,0.398682
18:20:24,0.877197,-0.042725,0.474121
18:20:24,0.815186,-0.13208,0.517334
18:20:24,0.804443,-0.189453,0.540283
18:20:24,0.782715,-0.273438,0.562988
18:20:24,0.732666,-0.356201,0.597168
18:20:24,0.719971,-0.398926,0.627686
18:20:24,0.744141,-0.370117,0.614502
18:20:24,0.742432,-0.283936,0.522705
18:20:24,0.797119,-0.242676,0.508301
18:20:24,0.774658,-0.196289,0.406982
18:20:24,0.779785,-0.117676,0.404053
18:20:24,0.892578,-0.09375,0.584717
18:20:24,0.920898,-0.072266,0.400635
18:20:24,1.104736,-0.083252,0.377686
18:20:24,0.912842,-0.091309,0.366211
18:20:24,0.758057,-0.080322,0.476074
18:20:24,0.703125,-0.092773,0.756592
18:20:24,0.763428,-0.042236,0.676758
18:20:24,0.941406,0.053467,0.564941
18:20:24,0.260742,-0.109375,1.006592
18:20:24,-0.882324,-0.794189,2.555176
18:20:25,0.095459,-0.029541,0.794189
18:20:25,-0.001709,-0.025879,1.224854
18:20:25,0.615723,0.810059,1.093018
18:20:25,1.297607,0.583496,0.006348
18:20:25,1.901855,-0.430664,0.53833
18:20:25,1.524658,-0.707764,1.699463
18:20:25,3.121094,0.279541,2.301025
18:20:25,4.025635,0.283203,2.439941
18:20:25,2.086914,0.256592,0.78833
18:20:25,7.035889,4.10498,2.783936
18:20:25,4.80542,3.591309,0.658447
18:20:25,1.50293,1.152832,-0.178711
18:20:25,1.609619,0.261719,1.575684
18:20:25,0.983887,0.015137,1.629395
18:20:25,0.332031,0.005615,0.987305
18:20:25,0.206299,-0.199463,1.128174
18:20:25,0.102783,-0.376465,0.977051
18:20:25,-0.039063,-0.366943,0.292236
18:20:25,0.008789,-0.384766,0.306885
18:20:25,0.289307,-0.429443,0.67627
18:20:25,0.743652,-0.45752,0.873779
18:20:25,1.068848,-0.389404,0.540527
18:20:25,1.235107,-0.286377,0.162109
18:20:25,1.615479,-0.255615,0.211914
18:20:25,1.866943,-0.250244,0.20752
18:20:25,1.82666,-0.269287,0.013672
18:20:25,1.836426,-0.281738,-0.051758
18:20:25,1.90918,-0.285156,-0.012451
18:20:25,1.895264,-0.349854,0.025146
18:20:25,2.047852,-0.453369,0.266846
18:20:25,2.415527,-0.460205,0.642334
18:20:25,2.723389,-0.257813,0.721436
18:20:25,2.871582,0.110107,0.447998
18:20:25,2.814209,0.526123,-0.138672
18:20:25,2.825439,1.238281,-0.830322
18:20:25,2.316406,1.607178,-1.666748
18:20:25,1.950928,1.489746,-1.916504
18:20:25,1.549561,0.875244,-1.783936
18:20:25,1.255859,0.517822,-2.006836
18:20:25,1.204346,0.433594,-2.411621
18:20:25,1.100342,0.596436,-2.883301
18:20:25,1.288574,1.039551,-3.314941
18:20:25,1.696777,1.300293,-3.656494
18:20:25,1.770752,1.032227,-2.94751
18:20:25,1.383789,0.61499,-1.234863
18:20:25,1.898193,0.159668,1.846191
18:20:25,1.736084,-0.162354,2.481445
18:20:25,-0.015137,-0.485352,0.086914
18:20:25,-1.216064,-1.5271,0.415527
18:20:25,-1.560059,-1.978027,0.470459
18:20:25,0.288086,-1.375977,0.423096
18:20:25,2.113037,-1.733398,2.533691
18:20:25,3.048584,-1.586914,1.333496
18:20:25,1.740234,-0.185547,-1.815918
18:20:25,5.6604,1.071289,-0.683594
18:20:25,1.897949,2.040039,-2.941895
18:20:25,2.349121,1.567627,-0.651611
18:20:25,1.101563,0.156738,0.359375
18:20:25,0.842285,-0.094238,0.923584
18:20:25,0.609863,-0.064697,1.030029
18:20:25,0.329102,-0.033936,0.970459
18:20:25,0.340332,-0.015625,1.028076
18:20:25,0.169922,-0.033447,0.834961
18:20:25,-0.015137,0.009033,0.715576
18:20:25,-0.122314,-0.005127,0.804688
18:20:25,-0.012451,0.054443,0.72876
18:20:25,0.148438,0.102783,0.717529
18:20:25,0.226074,0.112793,0.756348
18:20:25,0.300049,0.160156,0.712402
18:20:25,0.344727,0.197021,0.653809
18:20:25,0.707275,0.26001,0.80835
18:20:25,1.306396,0.730469,0.662109
18:20:25,1.228027,1.103027,-0.156982
18:20:25,1.140869,0.922852,-0.337646
18:20:25,1.351563,0.450439,0.263184
18:20:25,1.091064,0.00708,0.483887
18:20:25,0.797119,-0.202148,0.47583
18:20:25,0.772949,-0.284424,0.545166
18:20:25,0.79248,-0.3125,0.590088
18:20:25,0.749512,-0.337891,0.601074
18:20:25,0.703613,-0.346191,0.645264
18:20:25,0.686523,-0.310059,0.696045
18:20:25,0.70459,-0.206055,0.650391
18:20:25,0.703125,-0.102539,0.55249
18:20:25,0.733887,-0.008545,0.553223
18:20:25,0.848877,0.123535,0.455322
18:20:25,0.814209,0.193848,0.374756
18:20:25,0.891357,0.282471,0.452881
18:20:25,0.938965,0.390869,0.377441
18:20:25,0.83667,0.282227,0.348877
18:20:25,0.78418,0.134277,0.53418
18:20:25,0.963867,-0.002686,0.675781
18:20:25,0.970947,-0.136963,0.552734
18:20:25,0.80957,-0.154541,0.39209
18:20:25,0.649658,-0.260986,0.686035
18:20:25,0.356201,-0.395752,1.297119
18:20:25,-0.252686,-0.597412,1.871582
18:20:25,-0.343994,-0.687012,1.301758
18:20:25,0.313965,-0.529297,0.887207
18:20:25,0.509766,0.387939,1.208984
18:20:26,1.079102,1.035156,0.519043
18:20:26,1.216797,0.232666,-0.210938
18:20:26,2.10498,-0.582031,1.614258
18:20:26,2.547852,-0.422607,2.288574
18:20:26,3.412842,-0.342773,1.825195
18:20:26,3.481689,-0.29834,1.880615
18:20:26,4.362061,2.05542,1.776855
18:20:26,7.296143,4.352539,1.64502
18:20:26,1.852295,2.460205,-1.084473
18:20:26,1.418213,1.037598,0.794678
18:20:26,1.104736,0.13916,1.785889
18:20:26,0.421143,0.060547,1.130859
18:20:26,0.157959,-0.110352,0.872559
18:20:26,0.134766,-0.42334,1.174561
18:20:26,-0.020996,-0.540771,0.717529
18:20:26,-0.105957,-0.514893,0.367432
18:20:26,0.086426,-0.515137,0.618408
18:20:26,0.464844,-0.48584,0.990967
18:20:26,1.0625,-0.447998,1.101807
18:20:26,1.361572,-0.293945,0.579102
18:20:26,1.644775,-0.117676,0.35083
18:20:26,2.093262,0.067383,0.301758
18:20:26,2.087646,0.324463,-0.019775
18:20:26,1.879395,0.519287,-0.448242
18:20:26,1.868164,0.6875,-0.641846
18:20:26,1.768066,0.545166,-0.51001
18:20:26,1.540527,0.222412,-0.164307
18:20:26,1.771729,-0.002441,0.425049
18:20:26,2.378174,0.014648,0.96582
18:20:26,2.835205,0.352539,0.856934
18:20:26,3.074707,0.995361,0.197266
18:20:26,2.823242,1.464844,-0.729492
18:20:26,2.30835,1.226074,-1.342285
18:20:26,1.999512,0.553223,-1.314209
18:20:26,1.670654,0.172119,-1.404053
18:20:26,1.340576,0.171387,-1.868896
18:20:26,1.224609,0.167969,-2.306396
18:20:26,1.266846,0.24292,-2.666504
18:20:26,1.340576,0.586182,-3.044434
18:20:26,1.461182,0.916016,-3.568115
18:20:26,1.773926,0.79248,-3.445557
18:20:26,1.696533,0.250977,-2.329834
18:20:26,1.247314,0.187256,-0.558594
18:20:26,2.613037,0.000488,2.001465
18:20:26,1.121582,-0.194092,1.86792
18:20:26,-0.345459,-0.490967,0.888428
18:20:26,-0.217285,-1.791016,1.755859
18:20:26,-0.478271,-0.996338,0.340332
18:20:26,0.235352,-0.871582,0.716553
18:20:26,2.009766,-1.197754,2.489746
18:20:26,1.334473,-0.641113,0.111328
18:20:26,4.137451,-0.455811,0.544678
18:20:26,3.396484,0.493408,-1.304199
18:20:26,2.708252,1.585938,-1.989746
18:20:26,2.304688,0.974365,-0.608154
18:20:26,1.325195,0.140381,0.381104
18:20:26,0.791992,-0.130859,0.771484
18:20:26,0.637939,-0.089844,0.833008
18:20:26,0.432373,-0.032227,0.782959
18:20:26,0.383301,-0.070068,0.97168
18:20:26,0.330566,-0.103271,0.966309
18:20:26,0.143066,-0.124268,0.692627
18:20:26,0.077881,-0.158447,0.64624
18:20:26,0.162842,-0.137451,0.751953
18:20:26,0.24707,-0.071045,0.764893
18:20:26,0.27124,-0.026367,0.707764
18:20:26,0.322754,0.010254,0.697266
18:20:26,0.579834,0.052734,0.830566
18:20:26,0.941895,0.170166,0.796631
18:20:26,0.960693,0.310059,0.293701
18:20:26,1.055664,0.474609,0.07666
18:20:26,1.55127,0.826172,0.159668
18:20:26,1.200928,0.62915,-0.031738
18:20:26,1.107178,0.294189,0.347656
18:20:26,0.923828,0.099854,0.536133
18:20:26,0.687988,0.015869,0.484131
18:20:26,0.687012,-0.057617,0.571777
18:20:26,0.692139,-0.116943,0.654785
18:20:26,0.616211,-0.17749,0.599609
18:20:26,0.613281,-0.225586,0.5979
18:20:26,0.689941,-0.264893,0.688965
18:20:26,0.685303,-0.241699,0.591064
18:20:26,0.838867,-0.241455,0.574219
18:20:26,0.761475,-0.193604,0.462891
18:20:26,0.80835,-0.148438,0.479004
18:20:26,0.805176,-0.123291,0.467041
18:20:26,0.8125,-0.142822,0.484863
18:20:26,1.140869,-0.152588,0.49707
18:20:26,1.185791,-0.190674,0.337891
18:20:26,0.845215,-0.174072,0.364502
18:20:26,0.762939,-0.158936,0.813477
18:20:26,0.737793,-0.091309,0.850098
18:20:26,0.541504,0.106201,0.451416
18:20:26,0.004883,-0.287598,1.494629
18:20:26,-0.34375,-0.543945,2.054199
18:20:26,0.168701,-0.073975,0.780762
18:20:26,0.232178,-0.306152,1.068115
18:20:26,0.490967,0.364014,0.546387
18:20:26,1.208252,0.882324,0.381592
18:20:26,1.808105,-0.344482,0.24707
18:20:27,2.479004,-0.374512,2.369385
18:20:27,2.117676,0.240723,1.55835
18:20:27,2.858887,0.065674,1.755371
18:20:27,3.172852,0.313232,1.529785
18:20:27,2.685303,1.077881,0.221436
18:20:27,7.998047,5.399902,2.056641
18:20:27,2.234863,3.06958,-1.372803
18:20:27,1.522705,1.361816,0.563721
18:20:27,1.241455,0.397705,1.562988
18:20:27,0.556396,0.062988,1.128662
18:20:27,0.219727,-0.119141,0.842285
18:20:27,0.161865,-0.391846,0.888428
18:20:27,-0.045166,-0.57959,0.567627
18:20:27,-0.166748,-0.650879,0.285645
18:20:27,-0.109863,-0.659668,0.364014
18:20:27,0.182617,-0.669922,0.689941
18:20:27,0.753662,-0.622803,0.926758
18:20:27,1.141602,-0.488525,0.588135
18:20:27,1.397461,-0.30957,0.200439
18:20:27,1.736572,-0.179688,0.229248
18:20:27,1.945801,-0.092041,0.286133
18:20:27,1.986084,0.022461,0.174561
18:20:27,2.05127,0.15625,0.067627
18:20:27,2.126465,0.297607,-0.044678
18:20:27,1.971436,0.351318,-0.255371
18:20:27,1.836182,0.260498,-0.135254
18:20:27,2.201904,0.186035,0.451904
18:20:27,2.782227,0.303711,0.8396
18:20:27,3.104248,0.730469,0.564453
18:20:27,3.028564,1.317383,-0.273682
18:20:27,2.230957,1.353027,-1.375732
18:20:27,1.891357,0.928711,-1.701172
18:20:27,1.642578,0.373291,-1.705566
18:20:27,1.261475,0.217285,-2.101074
18:20:27,1.28125,0.272217,-2.395752
18:20:27,1.929199,0.571045,-2.491211
18:20:27,1.444824,0.934326,-3.341553
18:20:27,1.201904,1.256104,-4.21582
18:20:27,1.420654,0.727051,-3.864746
18:20:27,0.339355,0.362061,-2.930176
18:20:27,3.105469,-0.321045,1.220947
18:20:27,2.780518,-0.77832,2.757324
18:20:27,0.097412,-0.59375,0.546387
18:20:27,-0.672363,-1.82666,0.275146
18:20:27,-0.692139,-1.647461,0.528076
18:20:27,0.244629,-1.318604,1.518311
18:20:27,1.868896,-1.606689,1.64502
18:20:27,3.251709,-1.639893,0.55542
18:20:27,3.283203,-0.805176,-1.111816
18:20:27,3.044678,0.469971,-1.882568
18:20:27,2.954834,1.084717,-1.054443
18:20:27,1.638916,0.882568,-0.575928
18:20:27,0.881348,0.25,0.217285
18:20:27,0.963135,0.126953,1.056396
18:20:27,0.492676,0.192627,0.8396
18:20:27,0.245117,0.266602,0.61792
18:20:27,0.30249,0.295166,0.703857
18:20:27,0.306641,0.337158,0.840332
18:20:27,0.221191,0.344238,0.821289
18:20:27,0.096924,0.320068,0.653076
18:20:27,0.13501,0.254883,0.663086
18:20:27,0.240479,0.181641,0.752441
18:20:27,0.26709,0.139893,0.718018
18:20:27,0.336914,0.138916,0.701904
18:20:27,0.600342,0.209229,0.785156
18:20:27,0.806396,0.313232,0.639648
18:20:27,0.869873,0.380371,0.436035
18:20:27,1.179932,0.574707,0.367432
18:20:27,1.160645,0.563232,0.070801
18:20:27,1.191162,0.376709,0.171387
18:20:27,1.035889,0.118408,0.452637
18:20:27,0.825195,-0.052002,0.568115
18:20:27,0.741943,-0.103516,0.614014
18:20:27,0.715088,-0.125,0.628906
18:20:27,0.68335,-0.167236,0.620361
18:20:27,0.650879,-0.212402,0.644775
18:20:27,0.683594,-0.224365,0.661865
18:20:27,0.738281,-0.171631,0.616943
18:20:27,0.763184,-0.079834,0.484619
18:20:27,0.805664,-0.02417,0.405518
18:20:27,0.836182,-0.044434,0.44751
18:20:27,0.82373,-0.094971,0.490234
18:20:27,0.776611,-0.114502,0.519043
18:20:27,0.915039,-0.147461,0.540771
18:20:27,1.233398,-0.188965,0.513184
18:20:27,1.015137,-0.151367,0.376953
18:20:27,0.756836,-0.127686,0.55542
18:20:27,0.749756,-0.033447,0.623535
18:20:27,0.626465,0.111816,0.592285
18:20:27,0.339844,0.116211,1.023682
18:20:27,-0.32251,-0.535889,2.21875
18:20:27,-0.097412,-0.278809,0.990967
18:20:27,0.306152,-0.380371,0.919434
18:20:27,0.279297,0.052734,1.158936
18:20:27,0.974854,0.842285,0.929199
18:20:27,1.563721,0.187256,-0.256104
18:20:27,1.811279,-0.548584,1.325928
18:20:27,2.009766,0.0896,1.942871
18:20:27,2.122559,0.42334,1.599365
18:20:27,4.342773,-0.035889,2.606689
18:20:28,2.036621,-0.157715,0.759521
18:20:28,6.715332,3.641357,2.929199
18:20:28,5.015381,3.811768,0.678955
18:20:28,1.749268,1.942383,-0.702637
18:20:28,1.648438,0.749268,1.234375
18:20:28,0.911133,0.035645,1.550293
18:20:28,0.360596,-0.019287,0.875
18:20:28,0.226807,-0.164795,0.752441
18:20:28,0.200195,-0.444336,0.861816
18:20:28,0.061768,-0.593262,0.515625
18:20:28,0.006592,-0.612793,0.276123
18:20:28,0.353271,-0.718506,0.668213
18:20:28,0.924805,-0.768555,0.934326
18:20:28,1.199463,-0.54126,0.361572
18:20:28,1.362793,-0.321045,0.026611
18:20:28,1.697021,-0.264404,0.164307
18:20:28,1.718506,-0.20874,0.159424
18:20:28,1.544434,-0.06665,-0.065918
18:20:28,1.600342,0.028564,-0.120605
18:20:28,1.827393,0.062256,0.00708
18:20:28,1.882813,0.012451,0.039551
18:20:28,2.149414,-0.062012,0.353027
18:20:28,2.526123,-0.025391,0.634277
18:20:28,2.637451,0.143555,0.52832
18:20:28,2.602783,0.317871,0.321045
18:20:28,2.735352,0.679688,0.050293
18:20:28,2.629883,1.154297,-0.648926
18:20:28,2.291504,1.143555,-1.252686
18:20:28,1.949219,0.887451,-1.54834
18:20:28,1.555908,0.627197,-1.862793
18:20:28,1.32251,0.542969,-2.214844
18:20:28,1.440674,0.571533,-2.510254
18:20:28,1.716064,0.725342,-2.817383
18:20:28,1.564453,0.9729,-3.327881
18:20:28,1.499023,1.102295,-3.599854
18:20:28,0.516602,0.688232,-3.301025
18:20:28,0.58252,0.539795,-1.915771
18:20:28,2.943359,0.047119,2.108643
18:20:28,2.304932,-0.615967,3.034424
18:20:28,-0.321777,-0.466797,-0.729004
18:20:28,-0.205078,-1.379395,-0.394287
18:20:28,0.231445,-2.323975,1.539307
18:20:28,0.98877,-2.257813,1.602783
18:20:28,1.888916,-2.1875,0.907959
18:20:28,1.5896,-1.414795,-1.020264
18:20:28,2.789795,-1.24707,-0.488281
18:20:28,4.338623,-1.153076,1.12793
18:20:28,1.523926,0.031006,-0.876709
18:20:28,1.394531,0.459473,-0.818359
18:20:28,1.97168,0.826416,0.172363
18:20:28,0.960938,0.922119,-0.234619
18:20:28,0.669434,0.766357,0.189697
18:20:28,0.587402,0.517578,0.870361
18:20:28,0.525146,0.498535,0.758301
18:20:28,0.327881,0.493164,0.580078
18:20:28,0.267578,0.441895,0.680664
18:20:28,0.256104,0.370361,0.807861
18:20:28,0.216797,0.278076,0.673096
18:20:28,0.227783,0.199707,0.587891
18:20:28,0.418213,0.178467,0.699219
18:20:28,0.639893,0.205322,0.677002
18:20:28,0.755615,0.224365,0.517334
18:20:28,0.926514,0.247559,0.456055
18:20:28,1.154053,0.354736,0.378174
18:20:28,1.207764,0.391846,0.169434
18:20:28,1.19751,0.265625,0.223145
18:20:28,1.072754,0.079102,0.436523
18:20:28,0.844238,-0.041992,0.474121
18:20:28,0.791504,-0.056641,0.544678
18:20:28,0.750977,-0.072998,0.593262
18:20:28,0.687744,-0.106689,0.574219
18:20:28,0.675781,-0.13623,0.609131
18:20:28,0.689209,-0.132813,0.571045
18:20:28,0.786133,-0.080078,0.510986
18:20:28,0.860596,-0.06665,0.482666
18:20:28,0.940674,-0.082764,0.685547
18:20:28,0.779053,0.029541,0.260742
18:20:28,0.890625,0.063232,0.449463
18:20:28,0.793457,0.029297,0.486084
18:20:28,0.781006,0,0.499756
18:20:28,0.803223,-0.013428,0.500977
18:20:28,1.025391,-0.054443,0.480469
18:20:28,1.13208,-0.131348,0.31665
18:20:28,1.01123,-0.165039,0.430664
18:20:28,0.809814,-0.067871,0.436035
18:20:28,0.82373,-0.139404,0.552246
18:20:28,0.601563,-0.050781,0.671631
18:20:28,-0.183838,-0.554199,2.02002
18:20:28,-0.322266,-0.356201,1.281982
18:20:28,0.118408,-0.34082,0.862061
18:20:28,0.110596,-0.080078,0.958984
18:20:28,0.869141,0.840332,1.33667
18:20:28,0.558594,1.327881,0.347168
18:20:28,1.199463,0.070313,-0.285889
18:20:28,3.096924,-1.082764,1.078613
18:20:28,3.266113,-0.934326,2.073242
18:20:28,2.929688,-0.557373,1.532959
18:20:28,2.45752,-0.157471,0.29248
18:20:28,5.150146,2.482422,1.23877
18:20:29,6.693359,4.989746,1.113525
18:20:29,0.632813,2.031738,-1.943848
18:20:29,1.655518,1.028076,1.169434
18:20:29,0.904053,0.091064,1.718994
18:20:29,0.282227,0.181396,0.786377
18:20:29,0.140869,-0.108643,0.740479
18:20:29,0.062256,-0.470215,0.911865
18:20:29,-0.181641,-0.592529,0.283936
18:20:29,-0.298828,-0.66333,0.049561
18:20:29,-0.218262,-0.78125,0.406982
18:20:29,-0.034424,-0.75293,0.59668
18:20:29,0.323975,-0.693359,0.794189
18:20:29,0.977539,-0.674072,0.927979
18:20:29,1.418701,-0.510986,0.62085
18:20:29,1.771484,-0.336182,0.360107
18:20:29,2.018799,-0.203613,0.225098
18:20:29,2.041504,-0.110107,-0.00708
18:20:29,2.02124,-0.006836,-0.182373
18:20:29,2.1521,0.098633,-0.227295
18:20:29,2.13501,0.157227,-0.197998
18:20:29,2.238525,0.121094,0.164063
18:20:29,2.521484,0.157471,0.575928
18:20:29,2.587158,0.325439,0.553467
18:20:29,2.689941,0.813965,0.186523
18:20:29,2.72998,1.452393,-0.479248
18:20:29,2.402344,1.659912,-1.185547
18:20:29,1.955566,1.342041,-1.526611
18:20:29,1.510742,0.910889,-1.765381
18:20:29,1.211182,0.664795,-2.102783
18:20:29,1.400635,0.572266,-2.310059
18:20:29,1.837646,0.658203,-2.594727
18:20:29,1.702881,0.881836,-3.307373
18:20:29,1.330811,0.947266,-3.585693
18:20:29,0.794434,0.749268,-2.919922
18:20:29,0.259277,0.777588,-2.538818
18:20:29,3.690674,1.212646,1.340332
18:20:29,2.597656,-0.697021,2.742432
18:20:29,0.13916,0.033203,0.134521
18:20:29,0.251221,-0.981934,-0.602539
18:20:29,0.473145,-2.327881,1.400146
18:20:29,1.130127,-2.618652,1.246582
18:20:29,1.958984,-2.898926,0.70166
18:20:29,1.832031,-1.943359,-0.424805
18:20:29,2.088135,-1.249268,0.31665
18:20:29,2.407471,-0.754639,0.802734
18:20:29,1.104736,-0.079834,-0.342285
18:20:29,1.013916,0.284424,-0.354736
18:20:29,2.186523,1.685791,-0.007813
18:20:29,1.259277,1.952148,-0.709229
18:20:29,0.472412,1.118164,-0.162109
18:20:29,0.709229,0.566162,1.151123
18:20:29,0.555176,0.396484,1.135254
18:20:29,0.272705,0.329102,0.620605
18:20:29,0.270752,0.271484,0.596436
18:20:29,0.288574,0.177734,0.723145
18:20:29,0.251221,0.063477,0.744385
18:20:29,0.246826,0.003174,0.679688
18:20:29,0.308838,-0.032959,0.67749
18:20:29,0.532959,-0.019043,0.768799
18:20:29,0.851807,0.061523,0.746094
18:20:29,0.986816,0.124023,0.436035
18:20:29,1.066406,0.126953,0.263916
18:20:29,1.285645,0.125732,0.271484
18:20:29,1.364258,0.12207,0.22168
18:20:29,1.257324,0.080566,0.216553
18:20:29,1.081543,-0.007324,0.377686
18:20:29,0.876465,-0.016846,0.476318
18:20:29,0.763672,-0.03125,0.547852
18:20:29,0.691406,-0.030762,0.592041
18:20:29,0.599854,-0.046631,0.606934
18:20:29,0.575195,-0.035156,0.638916
18:20:29,0.612549,-0.006592,0.63501
18:20:29,0.676514,0.024902,0.567871
18:20:29,0.689941,0.044678,0.475586
18:20:29,0.773682,0.049561,0.512207
18:20:29,0.81543,0.044189,0.458252
18:20:29,0.79541,-0.006592,0.436523
18:20:29,0.757324,-0.05542,0.48999
18:20:29,1.171143,-0.12915,0.511719
18:20:29,1.292969,-0.173096,0.331055
18:20:29,0.928711,-0.175537,0.310059
18:20:29,0.725098,-0.173828,0.610596
18:20:29,0.732178,-0.092285,0.729004
18:20:29,0.751953,-0.143066,0.597656
18:20:29,0.594727,-0.313965,0.939453
18:20:29,0.035645,-0.45752,1.621582
18:20:29,-0.223877,-0.490967,1.369873
18:20:29,0.250488,-0.35376,0.810547
18:20:29,0.516113,-0.17334,1.074463
18:20:29,0.789795,0.525635,0.727295
18:20:29,1.448242,0.435547,0.333252
18:20:29,2.011963,-0.625977,0.903076
18:20:29,1.658203,-0.061279,1.917236
18:20:29,1.868652,-0.076172,1.543945
18:20:29,4.066895,0.488281,1.880127
18:20:29,3.072998,0.544434,0.913086
18:20:29,4.242432,1.876953,0.045166
18:20:29,6.047363,4.165771,0.843018
18:20:29,2.041748,2.242432,-0.761475
18:20:29,1.678711,0.756348,1.092041
18:20:29,1.251221,0.204834,1.48584
18:20:30,0.442871,0.053711,0.9729
18:20:30,0.178955,-0.021484,0.777832
18:20:30,0.16748,-0.313232,0.972168
18:20:30,0.002686,-0.455078,0.574951
18:20:30,-0.094482,-0.503662,0.291504
18:20:30,-0.033936,-0.575439,0.467285
18:20:30,0.412842,-0.736572,1.009521
18:20:30,1.039551,-0.817871,1.051758
18:20:30,1.309326,-0.613281,0.450928
18:20:30,1.565918,-0.342285,0.03418
18:20:30,1.966309,-0.23999,0.052246
18:20:30,2.001221,-0.218994,0.060303
18:20:30,1.811523,-0.146973,-0.03125
18:20:30,1.850098,-0.018799,0.022217
18:20:30,2.000977,0.089111,0.117188
18:20:30,2.065918,0.113525,0.130127
18:20:30,2.206055,0.082031,0.23877
18:20:30,2.488281,0.121582,0.405762
18:20:30,2.673584,0.303223,0.34668
18:20:30,2.894287,0.634277,0.162109
18:20:30,2.979492,1.239258,-0.411865
18:20:30,2.41748,1.55957,-1.378174
18:20:30,2.137939,1.475342,-1.826172
18:20:30,1.781494,0.970703,-1.878418
18:20:30,1.240723,0.585693,-2.180664
18:20:30,1.27832,0.533447,-2.382568
18:20:30,1.401123,0.451904,-2.607178
18:20:30,1.393066,0.539063,-3.022705
18:20:30,1.178223,0.734619,-3.539307
18:20:30,1.452148,0.737061,-3.403809
18:20:30,0.173584,0.446533,-3.005859
18:20:30,1.715088,0.309326,-0.69751
18:20:30,3.514648,-0.678467,3.449707
18:20:30,1.47168,-0.447266,1.366455
18:20:30,0.248047,-0.487549,-0.460938
18:20:30,0.437744,-1.217773,1.28125
18:20:30,0.67627,-1.248047,2.141602
18:20:30,0.842773,-0.923584,1.119629
18:20:30,0.864502,-0.759277,0.187256
18:20:30,3.383545,-0.646484,1.118652
18:20:30,3.192383,-0.10083,-0.240479
18:20:30,2.147217,1.111084,-2.056885
18:20:30,3.133301,1.39624,-0.945313
18:20:30,1.280762,0.476074,-0.429443
18:20:30,1.16626,0.077881,0.582031
18:20:30,0.881104,-0.005371,0.820801
18:20:30,0.455566,-0.002686,0.696045
18:20:30,0.37085,-0.006348,0.770508
18:20:30,0.337646,-0.034668,0.858643
18:20:30,0.335693,-0.064209,0.746338
18:20:30,0.263184,-0.175781,0.688721
18:20:30,0.182861,-0.24292,0.639404
18:20:30,0.222656,-0.266357,0.694092
18:20:30,0.267334,-0.248291,0.766602
18:20:30,0.307861,-0.187988,0.748047
18:20:30,0.587158,-0.204834,0.909424
18:20:30,0.777832,-0.1521,0.697021
18:20:30,0.843994,-0.06958,0.407471
18:20:30,1.078125,0.062256,0.353027
18:20:30,1.345459,0.17334,0.289307
18:20:30,1.245605,0.263184,0.0625
18:20:30,1.228516,0.487549,0.258789
18:20:30,1.065918,0.524414,0.380127
18:20:30,0.821533,0.428955,0.366943
18:20:30,0.734863,0.351074,0.468506
18:20:30,0.661377,0.244873,0.601318
18:20:30,0.541748,0.120361,0.634521
18:20:30,0.504883,0.040039,0.622803
18:20:30,0.552734,-0.015625,0.636719
18:20:30,0.63501,-0.077148,0.635254
18:20:30,0.729492,-0.140137,0.581055
18:20:30,0.843262,-0.199707,0.535889
18:20:30,0.879883,-0.2229,0.463867
18:20:30,0.881348,-0.229004,0.421875
18:20:30,0.939209,-0.254395,0.468506
18:20:30,0.817139,-0.25,0.40918
18:20:30,0.760742,-0.248047,0.48291
18:20:30,0.876221,-0.261963,0.561035
18:20:30,1.342041,-0.285156,0.568848
18:20:30,1.024902,-0.205322,0.146973
18:20:30,0.799561,-0.278809,0.535889
18:20:30,0.706787,-0.179443,0.778564
18:20:30,0.581299,-0.118896,0.754639
18:20:30,0.213135,0.049805,0.971924
18:20:30,-0.486084,-0.460205,2.084961
18:20:30,0.230713,-0.110107,0.800049
18:20:30,0.275146,-0.566895,1.174805
18:20:30,0.607178,0.003906,0.748047
18:20:30,1.971191,0.135498,-0.268066
18:20:30,1.04541,-0.10791,0.647705
18:20:30,1.846436,0.288818,1.953613
18:20:30,2.300537,0.530273,1.730713
18:20:30,3.835938,-0.066162,2.293213
18:20:30,2.293945,0.006104,1.476807
18:20:30,5.269775,2.085693,1.797852
18:20:30,5.810059,3.323975,0.697266
18:20:30,2.513916,2.544678,-0.765381
18:20:30,1.625977,1.068604,0.699463
18:20:30,1.202148,0.208008,1.602295
18:20:30,0.445068,0.118408,0.828125
18:20:31,0.195801,0.03833,0.533936
18:20:31,0.232178,-0.164795,0.82959
18:20:31,0.138428,-0.42749,0.882324
18:20:31,-0.039063,-0.491455,0.375244
18:20:31,-0.012207,-0.522217,0.32666
18:20:31,0.312012,-0.608643,0.760742
18:20:31,0.859375,-0.630371,0.980469
18:20:31,1.189697,-0.467529,0.51709
18:20:31,1.420898,-0.260742,0.302246
18:20:31,1.666748,-0.147705,0.314697
18:20:31,1.668213,0.002441,0.148438
18:20:31,1.594482,0.148438,-0.071289
18:20:31,1.701172,0.26416,-0.140381
18:20:31,1.955566,0.413574,-0.096191
18:20:31,2.040283,0.478516,-0.080811
18:20:31,2.070068,0.507324,-0.065918
18:20:31,2.107666,0.561523,0.089844
18:20:31,2.301514,0.610352,0.338379
18:20:31,2.607178,0.835693,0.456787
18:20:31,2.713867,1.214111,0.054932
18:20:31,2.36499,1.330078,-0.727783
18:20:31,2.139404,1.054199,-1.108154
18:20:31,2.061768,0.660156,-1.252686
18:20:31,1.828369,0.381836,-1.524414
18:20:31,1.506836,0.23291,-2.009277
18:20:31,1.370605,0.106934,-2.418945
18:20:31,1.390869,0.078857,-2.773193
18:20:31,1.44458,0.166748,-3.131348
18:20:31,1.650146,0.217285,-3.30835
18:20:31,1.718994,0.19165,-2.609863
18:20:31,1.168457,0.385986,-1.438232
18:20:31,1.76001,0.925049,0.619873
18:20:31,2.409668,0.703125,2.781982
18:20:31,0.099854,-0.210205,1.21582
18:20:31,-0.771484,-0.51416,0.902588
18:20:31,-1.35083,-1.39917,1.813965
18:20:31,-0.055176,-0.650146,-0.045898
18:20:31,0.546875,-0.652344,0.810059
18:20:31,1.408447,-0.574219,1.37915
18:20:31,2.351318,-0.556396,0.606201
18:20:31,3.579834,-0.082764,0.335205
18:20:31,3.655762,1.563232,-1.860596
18:20:31,2.62793,1.685547,-2.186523
18:20:31,2.233887,0.309814,-0.149902
18:20:31,1.367188,-0.188232,0.563965
18:20:31,0.96875,-0.078369,0.491455
18:20:31,0.675537,-0.138428,0.747314
18:20:31,0.447998,-0.144775,0.767578
18:20:31,0.344238,-0.140869,0.84082
18:20:31,0.303223,-0.209229,0.955566
18:20:31,0.213135,-0.260986,0.741699
18:20:31,0.164063,-0.274902,0.539795
18:20:31,0.246338,-0.247803,0.672363
18:20:31,0.308838,-0.165771,0.750732
18:20:31,0.479004,-0.146973,0.849121
18:20:31,0.720459,-0.141846,0.80249
18:20:31,0.849365,-0.084229,0.538818
18:20:31,1.046387,-0.006348,0.407715
18:20:31,1.272217,0.083252,0.303467
18:20:31,1.311035,0.204102,0.172119
18:20:31,1.281006,0.359131,0.186523
18:20:31,1.165283,0.424805,0.233887
18:20:31,0.923828,0.366455,0.265625
18:20:31,0.78125,0.232422,0.427734
18:20:31,0.684326,0.083496,0.539063
18:20:31,0.614014,-0.006104,0.55835
18:20:31,0.622314,-0.06543,0.600586
18:20:31,0.609131,-0.156494,0.612549
18:20:31,0.62915,-0.227051,0.625
18:20:31,0.675781,-0.267822,0.605713
18:20:31,0.735107,-0.28125,0.530518
18:20:31,0.809326,-0.295898,0.499023
18:20:31,0.842773,-0.313232,0.564453
18:20:31,0.813721,-0.28418,0.454346
18:20:31,1.005615,-0.286865,0.575439
18:20:31,1.0354,-0.236328,0.44873
18:20:31,0.953613,-0.170654,0.41333
18:20:31,0.760986,-0.118896,0.51001
18:20:31,0.578613,-0.19165,0.719482
18:20:31,0.770752,-0.132813,0.641602
18:20:31,0.708496,-0.2146,0.449219
18:20:31,0.928223,-0.233398,0.442139
18:20:31,0.927734,-0.318115,1.07666
18:20:31,-0.364258,-0.912354,1.980225
18:20:31,-0.390625,-0.549805,1.180176
18:20:31,0.13208,0.086426,0.727051
18:20:31,0.360107,0.681885,1.030762
18:20:31,1.237061,1.004395,0.326172
18:20:31,1.48999,0.08667,0.200928
18:20:31,1.897949,-0.11084,1.305176
18:20:31,2.505127,0.414307,2.166504
18:20:31,2.904297,0.307617,2.07373
18:20:31,3.237549,-0.035156,2.092285
18:20:31,3.646973,0.78125,0.988037
18:20:31,7.859131,1.99292,1.84082
18:20:31,2.778076,1.773926,-0.747559
18:20:31,2.126465,1.239258,0.347656
18:20:31,1.478027,0.165039,1.470947
18:20:31,0.647461,0.14917,1.097168
18:20:32,0.275635,0.075195,0.781006
18:20:32,0.192871,-0.101318,1.106689
18:20:32,0.055176,-0.258545,0.924805
18:20:32,-0.246338,-0.231201,0.22876
18:20:32,-0.213379,-0.314209,0.384033
18:20:32,0.030029,-0.352051,0.687012
18:20:32,0.241455,-0.292969,0.685059
18:20:32,0.351563,-0.187988,0.636475
18:20:32,0.978271,-0.189697,1.080078
18:20:32,1.458008,-0.140381,0.904297
18:20:32,1.483154,-0.072266,0.312744
18:20:32,1.985107,-0.072266,0.206543
18:20:32,2.376221,0.000244,0.043701
18:20:32,2.264893,0.031982,-0.366699
18:20:32,2.109863,-0.064453,-0.487305
18:20:32,1.936279,-0.226074,-0.260254
18:20:32,2.104492,-0.414551,0.361816
18:20:32,2.682617,-0.422119,1.00415
18:20:32,2.900635,-0.085693,0.778809
18:20:32,2.766846,0.400879,-0.056885
18:20:32,2.593018,0.814453,-0.830566
18:20:32,2.11792,0.983643,-1.55957
18:20:32,1.522705,0.75708,-1.9729
18:20:32,1.233887,0.513428,-2.063965
18:20:32,1.563232,0.573975,-2.079102
18:20:32,1.861084,0.812988,-2.422852
18:20:32,1.712402,1.131104,-3.045654
18:20:32,1.428223,1.437988,-3.578857
18:20:32,1.231201,1.428467,-3.671387
18:20:32,1.373047,0.874268,-2.772949
18:20:32,1.118164,0.378418,-1.145508
18:20:32,2.599854,-0.092773,1.506592
18:20:32,1.418213,-0.569336,2.281738
18:20:32,-0.403564,-0.475342,0.493408
18:20:32,-0.13501,-2.25,0.950928
18:20:32,-0.472656,-1.704834,0.433838
18:20:32,0.245605,-1.404297,1.145508
18:20:32,2.374756,-1.628906,2.059814
18:20:32,0.862549,-1.046387,-0.834229
18:20:32,4.697021,-1.256836,0.0896
18:20:32,4.133301,-0.452881,-1.182861
18:20:32,2.315186,0.424316,-1.625488
18:20:32,1.94043,0.328369,-0.266602
18:20:32,1.045166,0.12085,0.179932
18:20:32,0.747803,0.121094,0.611328
18:20:32,0.578613,0.239746,0.756836
18:20:32,0.41333,0.380615,0.608154
18:20:32,0.30542,0.501709,0.570313
18:20:32,0.287598,0.593262,0.64917
18:20:32,0.226074,0.660645,0.717529
18:20:32,0.125977,0.656738,0.661133
18:20:32,0.171143,0.628418,0.602295
18:20:32,0.347656,0.578613,0.629395
18:20:32,0.49585,0.533691,0.614746
18:20:32,0.626709,0.48584,0.546143
18:20:32,0.743164,0.426758,0.491455
18:20:32,0.839844,0.381104,0.45752
18:20:32,0.879639,0.30127,0.374268
18:20:32,0.922852,0.16626,0.456055
18:20:32,0.9375,0.03418,0.531006
18:20:32,0.905518,-0.04248,0.472656
18:20:32,0.948975,-0.057129,0.452881
18:20:32,0.960693,-0.112061,0.466553
18:20:32,0.890137,-0.172363,0.463867
18:20:32,0.851074,-0.236084,0.504883
18:20:32,0.818115,-0.274414,0.527344
18:20:32,0.815186,-0.296387,0.545654
18:20:32,0.787842,-0.293457,0.529785
18:20:32,0.794189,-0.259766,0.568604
18:20:32,0.768799,-0.189453,0.551758
18:20:32,0.818604,-0.12207,0.551758
18:20:32,0.743164,-0.044434,0.399658
18:20:32,0.78125,-0.000244,0.482666
18:20:32,0.797852,0.011719,0.551514
18:20:32,0.698486,0.010254,0.479736
18:20:32,0.703857,-0.022217,0.544922
18:20:32,0.850586,0.07373,0.58252
18:20:32,1.083984,0.231445,0.468018
18:20:32,1.208252,0.168213,0.200684
18:20:32,1.183105,0.058594,0.195801
18:20:32,0.838135,-0.049805,0.55542
18:20:32,0.342041,-0.394531,1.440918
18:20:32,-0.646484,-0.606445,1.963135
18:20:32,-0.337646,-0.248291,1.23999
18:20:32,0.71167,-0.042969,0.878174
18:20:32,-0.119141,-0.102295,1.168213
18:20:32,0.618652,0.554932,0.915283
18:20:32,1.49585,0.526367,-0.029785
18:20:32,1.696289,-0.308594,0.37085
18:20:32,2.151367,0.128418,1.9021
18:20:32,2.130615,0.668457,1.909668
18:20:32,2.781738,0.192139,2.105225
18:20:32,2.347656,0.419922,1.561035
18:20:32,4.170654,1.622314,0.744873
18:20:32,5.512695,2.967529,0.591064
18:20:32,2.879639,2.059082,-0.372314
18:20:32,1.981201,0.702393,0.863525
18:20:32,1.443848,0.024902,1.545654
18:20:32,0.614258,-0.133057,0.965576
18:20:32,0.400146,-0.236328,0.796143
18:20:32,0.27124,-0.52124,0.998047
18:20:33,0.025635,-0.720947,0.730713
18:20:33,-0.044434,-0.755615,0.388184
18:20:33,0.19165,-0.804932,0.60083
18:20:33,0.689209,-0.799561,0.870605
18:20:33,1.062256,-0.597656,0.619141
18:20:33,1.219238,-0.34082,0.296875
18:20:33,1.466064,-0.189941,0.377197
18:20:33,1.653564,-0.040039,0.396973
18:20:33,1.701172,0.166748,0.202637
18:20:33,1.783936,0.359863,0.051025
18:20:33,2.057617,0.580811,-0.051758
18:20:33,2.270752,0.86084,-0.241211
18:20:33,2.157959,0.919434,-0.459229
18:20:33,2.090332,0.600586,-0.203857
18:20:33,1.959961,0.288818,0.111572
18:20:33,1.998535,0.275391,0.338867
18:20:33,2.4646,0.666504,0.455566
18:20:33,2.727295,1.21582,-0.083008
18:20:33,2.2854,1.184082,-0.979248
18:20:33,2.026123,0.703613,-1.309326
18:20:33,2.110107,0.239746,-1.428467
18:20:33,1.992676,0.048584,-1.862549
18:20:33,1.824463,-0.014648,-2.405273
18:20:33,1.547119,0.062256,-2.922607
18:20:33,1.226318,0.241699,-3.083984
18:20:33,1.088623,0.590332,-3.110352
18:20:33,0.826172,0.593262,-2.515625
18:20:33,-0.425537,0.91333,-3.341797
18:20:33,1.392334,1.547119,-0.984131
18:20:33,3.420166,-0.006592,3.183838
18:20:33,1.566895,-0.909424,1.951904
18:20:33,-0.056152,-0.495117,-1.057373
18:20:33,0.579834,-1.486328,0.276123
18:20:33,1.654053,-2.690186,2.431885
18:20:33,1.801514,-2.464111,1.004639
18:20:33,1.635498,-1.502197,-0.297363
18:20:33,2.679199,-1.242432,1.035645
18:20:33,2.13208,-0.432373,0.254395
18:20:33,0.968506,0.468018,-1.240967
18:20:33,2.320557,1.042725,-0.243896
18:20:33,1.955078,1.53833,-0.376953
18:20:33,0.744873,1.062988,-0.362305
18:20:33,0.889648,0.547363,0.695068
18:20:33,0.793945,0.435303,0.97168
18:20:33,0.373291,0.320557,0.643311
18:20:33,0.312256,0.234131,0.59375
18:20:33,0.327881,0.160889,0.758301
18:20:33,0.316162,0.087402,0.816406
18:20:33,0.271484,0.010986,0.717041
18:20:33,0.244873,-0.040039,0.664795
18:20:33,0.28125,-0.060791,0.737793
18:20:33,0.418945,-0.074951,0.855469
18:20:33,0.662598,-0.008301,0.828613
18:20:33,0.829834,0.115967,0.583008
18:20:33,0.958496,0.211426,0.411377
18:20:33,1.120117,0.261963,0.380127
18:20:33,1.233643,0.331055,0.276123
18:20:33,1.230225,0.342285,0.20874
18:20:33,1.084229,0.226318,0.325684
18:20:33,0.886475,0.096436,0.461426
18:20:33,0.746582,0.033203,0.550049
18:20:33,0.65625,-0.01001,0.632813
18:20:33,0.602295,-0.041016,0.67627
18:20:33,0.574463,-0.05957,0.654541
18:20:33,0.601074,-0.090576,0.628418
18:20:33,0.710938,-0.087158,0.630615
18:20:33,0.799561,-0.053467,0.543457
18:20:33,0.820801,-0.043213,0.42334
18:20:33,0.79834,-0.052979,0.394775
18:20:33,0.869385,-0.08374,0.519287
18:20:33,0.765625,-0.099121,0.456543
18:20:33,0.8125,-0.133301,0.546875
18:20:33,1.111816,-0.172607,0.584473
18:20:33,1.224854,-0.138672,0.413818
18:20:33,0.871582,-0.124268,0.408447
18:20:33,0.880615,-0.08252,0.666992
18:20:33,0.632324,0.042725,0.602295
18:20:33,0.780273,0.277344,0.475098
18:20:33,0.534668,0.173828,1.164551
18:20:33,-0.65918,-0.521973,1.986572
18:20:33,-0.129883,-0.535889,1.145264
18:20:33,0.441895,-0.282959,0.820801
18:20:33,-0.064453,0.544678,1.285645
18:20:33,0.865234,1.060059,0.674316
18:20:33,1.628418,-0.066406,-0.123047
18:20:33,1.966553,-0.351807,1.424561
18:20:33,1.755859,0.745117,2.268311
18:20:33,1.255127,0.58374,1.761719
18:20:33,2.878418,0.050293,2.339355
18:20:33,2.322998,-0.042725,0.98291
18:20:33,5.031982,2.117432,1.796631
18:20:33,7.225098,3.969482,1.961182
18:20:33,2.405273,2.405518,-1.346436
18:20:33,1.465332,0.91626,0.256104
18:20:33,1.318604,-0.074463,1.587891
18:20:33,0.621094,-0.124512,1.05835
18:20:33,0.217773,-0.199707,0.494873
18:20:33,0.167969,-0.481934,0.63208
18:20:33,-0.013916,-0.727051,0.511475
18:20:33,-0.060547,-0.823486,0.265381
18:20:34,0.172363,-0.940186,0.528564
18:20:34,0.774414,-1.098389,0.934326
18:20:34,1.273926,-0.947266,0.604492
18:20:34,1.54126,-0.647949,0.179443
18:20:34,1.837402,-0.473877,0.157471
18:20:34,1.907227,-0.354004,0.101074
18:20:34,1.817139,-0.266113,0.00415
18:20:34,2.0354,-0.154541,0.045654
18:20:34,2.176758,0.01416,-0.003174
18:20:34,2.287598,0.105469,-0.028076
18:20:34,2.356689,0.178223,-0.054443
18:20:34,2.371094,0.249268,-0.033691
18:20:34,2.695557,0.31543,0.282471
18:20:34,2.917236,0.538818,0.337891
18:20:34,2.892822,1.070801,-0.084229
18:20:34,2.293701,1.470947,-1.023438
18:20:34,1.8479,1.330811,-1.55127
18:20:34,1.721191,0.781006,-1.451904
18:20:34,1.401123,0.50415,-1.675293
18:20:34,1.104248,0.513184,-2.179443
18:20:34,1.182129,0.502197,-2.492676
18:20:34,1.306641,0.634277,-2.904297
18:20:34,1.375488,0.812988,-3.41333
18:20:34,1.783691,0.709473,-3.450195
18:20:34,1.807129,0.306885,-2.850342
18:20:34,1.408936,0.030273,-1.276855
18:20:34,1.713135,-0.227051,1.331299
18:20:34,1.41626,-0.456787,2.255859
18:20:34,0.284424,-0.76416,1.442627
18:20:34,-0.236084,-1.786377,2.280762
18:20:34,-0.867432,-0.777588,-0.326172
18:20:34,0.321533,-0.779297,0.736084
18:20:34,1.779053,-1.037109,2.709229
18:20:34,1.416748,-0.385742,0.288574
18:20:34,0.375977,0.009521,-1.449463
18:20:34,7.202881,1.987305,1.432617
18:20:34,1.699219,1.736084,-2.579102
18:20:34,1.8125,1.571777,-1.406738
18:20:34,2.505615,0.352783,0.823486
18:20:34,1.025146,-0.143799,0.507324
18:20:34,0.510986,-0.111816,0.354004
18:20:34,0.81543,-0.113281,0.787842
18:20:34,0.702393,-0.122314,0.865479
18:20:34,0.387939,-0.135986,0.626709
18:20:34,0.295166,-0.190674,0.672852
18:20:34,0.366699,-0.252197,0.843506
18:20:34,0.421387,-0.266602,0.741211
18:20:34,0.512695,-0.283447,0.635254
18:20:34,0.671631,-0.300781,0.672852
18:20:34,0.774414,-0.259766,0.597168
18:20:34,0.820313,-0.190186,0.481201
18:20:34,0.905273,-0.097412,0.492432
18:20:34,1.003174,0.051758,0.480469
18:20:34,1.014893,0.213623,0.387939
18:20:34,0.973877,0.31958,0.363037
18:20:34,0.94165,0.408691,0.412598
18:20:34,0.883545,0.488037,0.404053
18:20:34,0.790527,0.5,0.415283
18:20:34,0.713867,0.456543,0.48291
18:20:34,0.631104,0.374023,0.539795
18:20:34,0.624756,0.269043,0.561035
18:20:34,0.643311,0.181152,0.51416
18:20:34,0.718262,0.078369,0.515381
18:20:34,0.807129,-0.009766,0.546631
18:20:34,0.869141,-0.08374,0.520752
18:20:34,0.9021,-0.161621,0.474609
18:20:34,0.915283,-0.20166,0.459229
18:20:34,0.968262,-0.192627,0.408203
18:20:34,0.938965,-0.174561,0.433594
18:20:34,0.796631,-0.17334,0.493896
18:20:34,0.750977,-0.162598,0.564209
18:20:34,0.786377,-0.151123,0.600586
18:20:34,0.871826,-0.101563,0.484375
18:20:34,0.891846,-0.12085,0.48584
18:20:34,0.781006,-0.14502,0.555176
18:20:34,0.837158,-0.101318,0.589355
18:20:34,0.951416,-0.032471,0.523193
18:20:34,0.781738,0.226807,0.240723
18:20:34,0.195801,-0.087646,1.406982
18:20:34,-0.27124,-0.422607,1.94043
18:20:34,0.194336,-0.220459,0.820557
18:20:34,0.487793,-0.502441,0.968018
18:20:34,0.446533,0.194336,1.254639
18:20:34,1.20459,1.264404,1.36499
18:20:34,1.166016,0.323242,-0.216797
18:20:34,2.021729,-0.71582,0.589111
18:20:34,2.356201,-0.647949,2.297363
18:20:34,1.964111,0.029297,1.461426
18:20:34,3.264893,-0.135254,1.825928
18:20:34,2.494873,0.458252,1.012207
18:20:34,3.677734,1.410156,0.125488
18:20:34,6.85083,4.429932,1.36792
18:20:34,2.135986,2.854736,-1.110107
18:20:34,1.708008,1.456543,0.846924
18:20:34,1.149414,0.624756,1.4646
18:20:34,0.569092,0.219482,1.084717
18:20:34,0.303711,0.086182,0.80957
18:20:34,0.282227,-0.128418,1.024902
18:20:34,0.166748,-0.290771,0.742676
18:20:34,-0.026611,-0.321533,0.242188
18:20:35,-0.019043,-0.370361,0.260986
18:20:35,0.104004,-0.398682,0.483154
18:20:35,0.489258,-0.44165,0.844727
18:20:35,1.049316,-0.459229,0.961914
18:20:35,1.415771,-0.352539,0.616699
18:20:35,1.73291,-0.225342,0.352051
18:20:35,1.9646,-0.144775,0.165527
18:20:35,1.963379,-0.075439,-0.070557
18:20:35,2.030029,-0.027832,-0.12085
18:20:35,2.183105,0.046143,-0.106201
18:20:35,2.118408,0.101563,-0.097412
18:20:35,1.893311,0.038818,0.037354
18:20:35,2.02124,-0.028076,0.399658
18:20:35,2.661621,0.025146,0.845947
18:20:35,3.032227,0.332764,0.626709
18:20:35,2.947266,0.835938,-0.21582
18:20:35,2.770752,1.479248,-1.18335
18:20:35,1.966797,1.501221,-2.168701
18:20:35,1.670898,1.148438,-2.325684
18:20:35,1.401855,0.560303,-2.060059
18:20:35,1.283447,0.45166,-2.271729
18:20:35,1.599609,0.480957,-2.547852
18:20:35,1.75,0.596924,-2.904785
18:20:35,1.389648,0.736572,-3.488525
18:20:35,0.767578,0.412842,-3.125244
18:20:35,-0.608154,0.308838,-3.215332
18:20:35,2.283203,0.234619,0.251221
18:20:35,3.34082,-0.736572,3.086914
18:20:35,0.852295,-0.470703,0.851807
18:20:35,0.140625,-0.585693,-0.398682
18:20:35,0.594238,-1.297363,1.390381
18:20:35,1.268066,-1.735107,2.225098
18:20:35,1.290283,-1.498779,0.955811
18:20:35,1.229248,-1.075928,-0.106201
18:20:35,3.0979,-0.875732,0.695068
18:20:35,2.865723,-0.166748,-0.046631
18:20:35,1.696777,0.722656,-1.206787
18:20:35,2.35376,1.280029,-0.626465
18:20:35,1.582764,1.131348,-0.332031
18:20:35,0.807129,0.392822,0.343994
18:20:35,0.919922,0.294434,0.883789
18:20:35,0.46167,0.2229,0.786621
18:20:35,0.272705,0.187256,0.647949
18:20:35,0.339111,0.138672,0.76416
18:20:35,0.355957,0.072266,0.817383
18:20:35,0.297363,0.000488,0.738281
18:20:35,0.24292,-0.040771,0.609863
18:20:35,0.254883,-0.085693,0.634766
18:20:35,0.345703,-0.127197,0.764893
18:20:35,0.601318,-0.124023,0.904541
18:20:35,0.729736,-0.080322,0.678467
18:20:35,0.889893,0.021729,0.450928
18:20:35,1.071533,0.112305,0.381836
18:20:35,1.186768,0.185059,0.339844
18:20:35,1.27002,0.290527,0.260742
18:20:35,1.203125,0.37793,0.236084
18:20:35,1.014404,0.320801,0.302002
18:20:35,0.844238,0.196533,0.451416
18:20:35,0.707764,0.091064,0.571289
18:20:35,0.622803,0.022705,0.619141
18:20:35,0.591797,-0.040527,0.644287
18:20:35,0.588135,-0.080322,0.613525
18:20:35,0.653809,-0.119385,0.595459
18:20:35,0.743408,-0.162842,0.574707
18:20:35,0.838135,-0.17749,0.5271
18:20:35,0.883545,-0.164307,0.443848
18:20:35,0.895264,-0.160645,0.470703
18:20:35,0.880859,-0.12793,0.492188
18:20:35,0.847656,-0.094727,0.454102
18:20:35,0.907227,-0.133545,0.51123
18:20:35,0.976563,-0.145508,0.441406
18:20:35,0.996582,-0.16748,0.509766
18:20:35,0.824219,-0.1875,0.524414
18:20:35,0.713623,-0.172363,0.628906
18:20:35,0.673828,-0.197021,0.752441
18:20:35,0.633789,-0.176758,0.577393
18:20:35,0.933838,0.071289,0.78418
18:20:35,0.386963,0.171143,1.150635
18:20:35,-0.893799,-0.46167,2.149902
18:20:35,0.289307,-0.157471,0.898926
18:20:35,0.121582,-0.290283,1.000488
18:20:35,0.358398,0.44873,0.886963
18:20:35,1.399414,0.704346,-0.087402
18:20:35,1.534668,-0.241455,0.50415
18:20:35,1.736084,-0.008057,1.842529
18:20:35,1.644531,0.714844,1.933838
18:20:35,3.744141,0.136963,2.524902
18:20:35,2.221436,0.166504,1.333496
18:20:35,5.294922,0.99707,1.570801
18:20:35,6.348145,2.006592,1.159668
18:20:35,2.924561,2.008301,-0.546143
18:20:35,1.672363,1.048828,0.2771
18:20:35,1.428467,0.229736,1.597412
18:20:35,0.499023,0.072754,1.12915
18:20:35,0.221924,0.133301,0.592285
18:20:35,0.27832,-0.030029,0.809326
18:20:35,0.195313,-0.243408,0.885498
18:20:35,0.042725,-0.323242,0.466064
18:20:35,0.057129,-0.314697,0.376709
18:20:35,0.313232,-0.3125,0.683838
18:20:36,0.761719,-0.319092,0.997559
18:20:36,1.285645,-0.286621,0.896973
18:20:36,1.448486,-0.153564,0.325928
18:20:36,1.6875,-0.076416,0.103516
18:20:36,2.067627,-0.031982,-0.031738
18:20:36,2.14209,0.042236,-0.291504
18:20:36,2.351318,0.082031,-0.474854
18:20:36,2.221436,0.092041,-0.573242
18:20:36,1.953125,0.03125,-0.3125
18:20:36,1.76123,0.0271,-0.010254
18:20:36,2.041504,0.128906,0.44043
18:20:36,2.50293,0.376953,0.719971
18:20:36,2.925537,1.053223,0.443115
18:20:36,2.637451,1.69043,-0.482178
18:20:36,2.135254,1.666992,-1.19873
18:20:36,1.833496,0.853516,-0.985352
18:20:36,1.535645,0.339111,-1.016357
18:20:36,1.364746,0.190918,-1.447266
18:20:36,1.327393,0.118652,-1.930664
18:20:36,1.177002,0.154053,-2.570313
18:20:36,1.13623,0.298096,-3.240234
18:20:36,1.530518,0.515869,-3.465332
18:20:36,1.751221,0.730957,-3.200928
18:20:36,1.52417,0.595947,-2.349121
18:20:36,1.304688,0.377686,-1.031982
18:20:36,1.895508,0.263672,1.306885
18:20:36,2.15332,0.137451,2.313477
18:20:36,0.591553,-0.000244,0.733887
18:20:36,-0.554199,-0.913086,0.980957
18:20:36,-0.386475,-1.576904,1.182129
18:20:36,-0.020264,-0.811279,0.144043
18:20:36,0.87207,-0.945557,1.319336
18:20:36,1.979004,-1.017822,1.916016
18:20:36,2.083008,-0.419434,0.223633
18:20:36,4.593506,0.240234,0.349609
18:20:36,1.673584,1.697266,-3.182861
18:20:36,3.481445,2.05127,-1.010254
18:20:36,1.389893,0.155518,-0.09668
18:20:36,1.18457,-0.210938,0.664795
18:20:36,0.89624,-0.163818,0.759033
18:20:36,0.556885,-0.108398,0.568604
18:20:36,0.389648,-0.155273,0.674072
18:20:36,0.376465,-0.22583,0.91748
18:20:36,0.247559,-0.330078,0.880615
18:20:36,0.108398,-0.421631,0.681641
18:20:36,0.093018,-0.464111,0.603516
18:20:36,0.198242,-0.413086,0.695801
18:20:36,0.283203,-0.306641,0.742432
18:20:36,0.554932,-0.282227,0.902832
18:20:36,0.785156,-0.257324,0.76709
18:20:36,0.878906,-0.165771,0.426025
18:20:36,1.060547,-0.105469,0.37085
18:20:36,1.431152,-0.033447,0.26709
18:20:36,1.345947,0.137207,0.050049
18:20:36,1.089111,0.300537,0.237793
18:20:36,1.080566,0.386719,0.420898
18:20:36,0.821533,0.411865,0.305664
18:20:36,0.742432,0.347656,0.432373
18:20:36,0.699951,0.241455,0.562988
18:20:36,0.599121,0.136963,0.564453
18:20:36,0.598633,0.047852,0.572754
18:20:36,0.650391,-0.039795,0.616211
18:20:36,0.68335,-0.111084,0.603027
18:20:36,0.746338,-0.165283,0.552734
18:20:36,0.807373,-0.190918,0.512451
18:20:36,0.880615,-0.203613,0.514893
18:20:36,0.922607,-0.202881,0.499268
18:20:36,0.94043,-0.189209,0.470459
18:20:36,0.770996,-0.11499,0.398926
18:20:36,0.849365,-0.08374,0.613037
18:20:36,0.669922,-0.034912,0.522949
18:20:36,0.687012,-0.048584,0.599121
18:20:36,1.234619,-0.024902,0.602539
18:20:36,1.005127,0.102783,0.233154
18:20:36,0.869629,0.121338,0.505615
18:20:36,0.684326,0.030029,0.678223
18:20:36,0.571045,-0.011475,0.82666
18:20:36,0.534668,-0.029785,0.983643
18:20:36,-0.034424,-0.450195,1.52832
18:20:36,0.200684,-0.706543,1.310547
18:20:36,0.212402,-0.718262,0.973633
18:20:36,-0.040771,-0.443115,1.158203
18:20:36,0.612793,0.503174,1.124756
18:20:36,1.40332,0.826172,0.101318
18:20:36,1.701904,-0.064697,0.161133
18:20:36,1.92334,-0.256104,1.869629
18:20:36,2.080566,0.390137,1.676758
18:20:36,2.465576,0.188232,1.764648
18:20:36,3.334229,-0.100098,2.402344
18:20:36,3.154297,1.241211,1.306152
18:20:36,6.29834,3.40625,1.346924
18:20:36,3.435547,2.901855,-0.454102
18:20:36,1.614746,1.376221,-0.148926
18:20:36,1.490723,0.2146,1.442871
18:20:36,0.710449,-0.02124,1.128174
18:20:36,0.206543,-0.101318,0.541016
18:20:36,0.189453,-0.367432,0.870361
18:20:36,0.059326,-0.669922,0.9104
18:20:36,-0.087402,-0.76001,0.462158
18:20:36,-0.081055,-0.770264,0.344727
18:20:37,0.283936,-0.879395,0.796631
18:20:37,0.942871,-0.891602,0.997314
18:20:37,1.238037,-0.636963,0.494385
18:20:37,1.479248,-0.400635,0.180908
18:20:37,1.718506,-0.260986,0.213379
18:20:37,1.721924,-0.085205,0.148682
18:20:37,1.730225,0.119629,0.040039
18:20:37,1.79126,0.309082,-0.008789
18:20:37,1.910889,0.511475,-0.067871
18:20:37,1.962891,0.647949,-0.185791
18:20:37,1.844482,0.569092,-0.20459
18:20:37,1.841797,0.328613,0.080811
18:20:37,2.28125,0.188232,0.653564
18:20:37,2.883057,0.473877,0.843506
18:20:37,2.977295,1.014893,0.128906
18:20:37,2.51123,1.118164,-0.825439
18:20:37,2.048828,0.697998,-1.334961
18:20:37,1.691895,0.279053,-1.517334
18:20:37,1.313477,0.128174,-1.728516
18:20:37,1.514893,0.179199,-1.862793
18:20:37,1.76709,0.421875,-2.162354
18:20:37,1.68042,0.813721,-2.77002
18:20:37,1.134033,1.136963,-3.550293
18:20:37,1.114746,1.342285,-3.672607
18:20:37,1.269775,0.783691,-2.865967
18:20:37,1.278076,0.31543,-1.644043
18:20:37,1.727295,0.312988,0.057129
18:20:37,2.310547,-0.11084,2.551025
18:20:37,1.274658,-0.058838,1.191895
18:20:37,-0.14624,-0.365234,-0.366699
18:20:37,-0.616699,-2.040039,1.296875
18:20:37,-0.442871,-1.645264,0.633301
18:20:37,0.482422,-1.503906,1.354248
18:20:37,1.943848,-1.48584,1.65918
18:20:37,3.148438,-1.40918,0.773438
18:20:37,2.862549,-0.521973,-0.976807
18:20:37,3.296387,0.641602,-1.645996
18:20:37,2.796631,1.104248,-1.307617
18:20:37,1.414551,0.786377,-0.507813
18:20:37,1.103516,0.214111,0.68042
18:20:37,0.872559,0.055176,0.993652
18:20:37,0.407715,0.186035,0.563965
18:20:37,0.328125,0.2146,0.585693
18:20:37,0.366211,0.225342,0.827148
18:20:37,0.34082,0.241943,0.875
18:20:37,0.23584,0.256348,0.739746
18:20:37,0.149902,0.235352,0.588623
18:20:37,0.193848,0.168213,0.682129
18:20:37,0.30835,0.129639,0.740234
18:20:37,0.412598,0.129639,0.724121
18:20:37,0.610107,0.18457,0.745361
18:20:37,0.805664,0.242432,0.646973
18:20:37,0.873779,0.268311,0.467041
18:20:37,1.026855,0.282227,0.384521
18:20:37,1.202881,0.296875,0.296875
18:20:37,1.234863,0.255615,0.203613
18:20:37,1.200928,0.140625,0.268799
18:20:37,1.047119,0.019287,0.375977
18:20:37,0.872314,-0.076416,0.421631
18:20:37,0.781982,-0.14209,0.525391
18:20:37,0.721436,-0.189453,0.571289
18:20:37,0.656982,-0.236328,0.598877
18:20:37,0.612061,-0.272949,0.635986
18:20:37,0.611084,-0.296387,0.645508
18:20:37,0.647705,-0.287598,0.569092
18:20:37,0.710205,-0.277344,0.500488
18:20:37,0.756592,-0.29248,0.443115
18:20:37,0.728271,-0.294189,0.466797
18:20:37,0.957764,-0.269043,0.521484
18:20:37,1.273926,-0.226807,0.456299
18:20:37,1.112793,-0.184326,0.303711
18:20:37,0.761963,-0.17041,0.435059
18:20:37,0.690186,-0.106689,0.686279
18:20:37,0.672119,-0.099609,0.748047
18:20:37,0.666504,-0.187988,0.78125
18:20:37,0.943604,0.016357,0.499756
18:20:37,0.776855,-0.108887,1.01709
18:20:37,-0.247803,-0.918945,2.141357
18:20:37,-0.453857,-0.658936,1.133301
18:20:37,0.573486,-0.009766,0.710449
18:20:37,0.006348,0.148438,1.34668
18:20:37,0.801758,1.111084,0.546387
18:20:37,1.452148,0.305176,0.055664
18:20:37,1.552246,-0.280762,0.871094
18:20:37,2.339111,0.405029,2.042236
18:20:37,2.200439,0.869873,1.549072
18:20:37,3.259521,0.265137,2.438965
18:20:37,2.550049,0.453613,1.589111
18:20:37,6.471924,1.851318,1.987061
18:20:37,4.55835,2.011963,0.244141
18:20:37,2.358887,1.37085,-0.079834
18:20:37,1.908691,0.390869,1.25415
18:20:37,1.223877,-0.02417,1.528809
18:20:37,0.602783,-0.056641,1.038574
18:20:37,0.380371,-0.20166,1.123779
18:20:37,0.231445,-0.421143,1.150879
18:20:37,0.037109,-0.480713,0.576172
18:20:37,-0.01416,-0.445068,0.272461
18:20:37,0.215088,-0.431641,0.606445
18:20:37,0.683838,-0.417725,0.973633
18:20:38,1.054688,-0.346191,0.79541
18:20:38,1.170898,-0.240967,0.30127
18:20:38,1.331787,-0.205566,0.111572
18:20:38,1.556152,-0.232666,0.113281
18:20:38,1.731445,-0.274902,0.065918
18:20:38,1.866699,-0.289063,0.004639
18:20:38,2.049072,-0.325684,0.052002
18:20:38,2.188477,-0.371582,0.108154
18:20:38,2.138672,-0.391357,0.065918
18:20:38,2.159912,-0.346191,0.16333
18:20:38,2.226074,-0.228027,0.323486
18:20:38,2.491211,-0.023438,0.484619
18:20:38,2.722412,0.306396,0.288086
18:20:38,2.796875,0.758057,-0.221924
18:20:38,2.739014,1.316895,-0.907959
18:20:38,2.480957,1.588379,-1.609131
18:20:38,1.920898,1.334229,-2.08667
18:20:38,1.186279,0.778809,-2.348633
18:20:38,1.050781,0.470459,-2.464844
18:20:38,1.413574,0.439453,-2.642822
18:20:38,1.537109,0.757813,-3.190674
18:20:38,1.451416,1.199707,-3.779053
18:20:38,1.606934,1.251465,-3.791504
18:20:38,1.656738,0.734131,-1.758789
18:20:38,2.246338,-0.215576,1.202148
18:20:38,1.423096,-0.326904,1.607666
18:20:38,-0.087891,-0.88623,1.509277
18:20:38,-1.385742,-1.993164,1.180176
18:20:38,-1.353027,-1.422363,-0.670898
18:20:38,0.885986,-1.13501,1.093262
18:20:38,2.478027,-1.581055,3.052734
18:20:38,2.169678,-0.888916,-0.037842
18:20:38,2.862305,-0.149658,-1.213867
18:20:38,4.222168,1.162842,-1.360107
18:20:38,2.328613,1.677734,-2.050293
18:20:38,2.001221,0.733887,-0.083252
18:20:38,0.98291,-0.039063,0.52832
18:20:38,0.784668,-0.095947,0.755615
18:20:38,0.531738,-0.062012,0.802246
18:20:38,0.38916,-0.083984,0.819092
18:20:38,0.334717,-0.146484,1.054688
18:20:38,0.213623,-0.20459,0.944336
18:20:38,0.065918,-0.233154,0.567627
18:20:38,-0.000732,-0.263184,0.624756
18:20:38,0.066406,-0.286621,0.862061
18:20:38,0.125244,-0.206055,0.798096
18:20:38,0.212402,-0.126221,0.752686
18:20:38,0.284912,-0.060059,0.737305
18:20:38,0.360107,-0.028564,0.810303
18:20:38,0.713867,0.012207,0.97998
18:20:38,0.942139,0.131836,0.671631
18:20:38,0.981445,0.267822,0.287109
18:20:38,1.204102,0.378174,0.231445
18:20:38,1.351563,0.44751,0.202148
18:20:38,1.268555,0.408936,0.203613
18:20:38,1.044189,0.267578,0.335449
18:20:38,0.817871,0.106934,0.515869
18:20:38,0.683105,-0.004639,0.654785
18:20:38,0.606445,-0.052246,0.720703
18:20:38,0.539307,-0.076416,0.740967
18:20:38,0.481445,-0.108398,0.736816
18:20:38,0.482422,-0.132324,0.728516
18:20:38,0.510986,-0.14917,0.682617
18:20:38,0.611572,-0.187744,0.621582
18:20:38,0.740967,-0.228516,0.584717
18:20:38,0.744141,-0.234863,0.495361
18:20:38,0.828857,-0.241455,0.352539
18:20:38,0.937256,-0.287598,0.538574
18:20:38,0.81543,-0.297607,0.450439
18:20:38,0.832031,-0.298828,0.509766
18:20:38,1.181885,-0.32666,0.603516
18:20:38,1.251465,-0.236572,0.268311
18:20:38,1.052002,-0.119873,0.323486
18:20:38,0.806396,0.02002,0.695313
18:20:38,0.552246,-0.121094,0.740723
18:20:38,-0.200195,-0.651123,1.980713
18:20:38,-0.321777,-0.229736,1.551025
18:20:38,0.253906,0.075928,0.901611
18:20:38,0.093994,-0.158447,1.273926
18:20:38,0.606934,0.973389,1.015137
18:20:38,1.316406,0.398926,-0.088623
18:20:38,1.416504,-0.510498,0.199707
18:20:38,1.848389,-0.510742,1.798584
18:20:38,2.860596,-0.02002,2.207275
18:20:38,3.836182,-0.141846,2.371582
18:20:38,2.344971,-0.372314,1.414551
18:20:38,5.499023,3.581543,2.462891
18:20:38,6.294189,5.45752,1.39624
18:20:38,0.968994,2.183105,-1.512207
18:20:38,1.194092,0.837646,1.054932
18:20:38,1.070068,0.158936,1.825439
18:20:38,0.426514,0.066406,1.098877
18:20:38,0.192383,-0.238525,0.953857
18:20:38,0.200928,-0.54248,1.07959
18:20:38,-0.037109,-0.595215,0.407227
18:20:38,-0.07959,-0.624756,0.211426
18:20:38,0.119873,-0.733887,0.550049
18:20:38,0.619629,-0.867676,0.862793
18:20:38,0.941406,-0.778564,0.50708
18:20:38,1.193115,-0.553955,0.195313
18:20:39,1.652832,-0.500244,0.265381
18:20:39,1.853027,-0.500977,0.253418
18:20:39,1.830322,-0.47583,0.182373
18:20:39,1.832275,-0.407959,0.098633
18:20:39,1.936035,-0.298584,0.125732
18:20:39,1.978027,-0.254395,0.076172
18:20:39,1.864502,-0.244629,0.002686
18:20:39,2.051758,-0.208252,0.253174
18:20:39,2.653809,-0.110107,0.727783
18:20:39,2.922119,0.171387,0.67627
18:20:39,2.827637,0.602295,0.053955
18:20:39,2.848145,1.49707,-0.789063
18:20:39,2.486084,2.262939,-1.854248
18:20:39,1.943604,2.208984,-2.328857
18:20:39,1.264404,1.290039,-2.059814
18:20:39,0.655518,0.494141,-2.000244
18:20:39,0.800781,0.369141,-2.289063
18:20:39,1.411377,0.402344,-2.609619
18:20:39,1.744141,0.526611,-3.148438
18:20:39,1.879883,0.720703,-3.675293
18:20:39,1.350342,0.562744,-3.382813
18:20:39,0.486328,0.128418,-1.768311
18:20:39,2.13501,-0.162109,1.39502
18:20:39,2.540771,-0.652588,3.314697
18:20:39,0.435547,-0.552979,0.626953
18:20:39,0.19458,-0.826172,0.531494
18:20:39,-0.286133,-1.085449,1.603271
18:20:39,0.203125,-0.653809,1.241455
18:20:39,0.358643,-0.314941,0.758057
18:20:39,1.581787,-0.248291,1.46875
18:20:39,4.106445,1.248291,1.045166
18:20:39,1.658203,2.143311,-2.237549
18:20:39,2.400146,2.504395,-2.2771
18:20:39,2.540039,0.474365,-0.042725
18:20:39,1.614014,-0.303955,0.364746
18:20:39,1.006348,-0.440186,0.246338
18:20:39,0.892822,-0.467529,0.411621
18:20:39,0.716064,-0.616211,0.680664
18:20:39,0.401123,-0.791748,0.668945
18:20:39,0.218506,-0.93457,0.746094
18:20:39,0.219727,-0.944824,0.822266
18:20:39,0.373779,-0.873291,0.694092
18:20:39,0.621826,-0.771484,0.592285
18:20:39,0.750732,-0.62085,0.543945
18:20:39,1.075928,-0.511475,0.484131
18:20:39,1.170898,-0.293457,0.208252
18:20:39,0.838135,-0.046143,0.146484
18:20:39,0.768799,0.009521,0.569092
18:20:39,0.748291,0.162109,0.560547
18:20:39,0.97168,0.799072,0.147217
18:20:39,1.210449,1.531006,-0.134521
18:20:39,0.674805,1.221436,-0.072754
18:20:39,0.455322,0.646729,0.551025
18:20:39,0.485596,0.371094,0.812988
18:20:39,0.466309,0.355957,0.667236
18:20:39,0.347168,0.246094,0.628418
18:20:39,0.366699,0.16333,0.704834
18:20:39,0.478271,0.139404,0.651855
18:20:39,0.611084,0.140381,0.592773
18:20:39,0.742432,0.126465,0.519775
18:20:39,0.877197,0.084229,0.446289
18:20:39,0.972656,0.024902,0.372314
18:20:39,1.006348,-0.018311,0.282471
18:20:39,1.198242,-0.088379,0.36792
18:20:39,1.305664,-0.168213,0.181152
18:20:39,1.038086,-0.222168,0.2146
18:20:39,0.904053,-0.259521,0.519287
18:20:39,0.740723,-0.260498,0.623535
18:20:39,0.729248,-0.282715,0.608154
18:20:39,0.7854,-0.373047,0.635254
18:20:39,0.775146,-0.424561,0.547852
18:20:39,0.648682,-0.451416,0.549805
18:20:39,0.933838,-0.364014,0.632813
18:20:39,0.979248,0.02417,0.604492
18:20:39,0.051758,0.102783,1.194824
18:20:39,-0.530762,-0.201416,1.590332
18:20:39,0.37915,-0.352539,0.905273
18:20:39,0.847656,-0.381592,0.793701
18:20:39,0.324951,0.270508,1.043457
18:20:39,1.572021,0.550781,0.476563
18:20:39,2.323975,-0.702148,0.695068
18:20:39,1.638184,-0.449951,1.98877
18:20:39,2.104004,0.202881,1.49707
18:20:39,3.202393,0.130127,1.581787
18:20:39,3.890869,-0.167969,2.090088
18:20:39,2.23584,0.95752,0.441406
18:20:39,7.953613,4.782471,2.782959
18:20:39,1.659912,2.571289,-1.370605
18:20:39,1.524658,1.469727,0.431641
18:20:39,1.224609,0.458008,1.603516
18:20:39,0.584473,0.163818,1.284424
18:20:39,0.19458,0.066895,0.80542
18:20:39,0.119873,-0.167725,0.842041
18:20:39,0.050049,-0.42334,0.853027
18:20:39,-0.111328,-0.517822,0.523926
18:20:39,-0.084961,-0.587158,0.508301
18:20:39,0.05957,-0.562256,0.729004
18:20:39,0.612305,-0.576904,1.157715
18:20:39,1.184326,-0.499023,0.943604
18:20:40,1.334961,-0.270752,0.311523
18:20:40,1.5979,-0.078125,0.137695
18:20:40,1.970703,0.018311,0.225342
18:20:40,2.046875,0.070068,0.152588
18:20:40,2.031494,0.171875,-0.006836
18:20:40,2.092285,0.326172,-0.199219
18:20:40,2.067139,0.316162,-0.321045
18:20:40,1.950684,0.089355,-0.176758
18:20:40,1.952148,-0.088867,0.138184
18:20:40,2.199463,-0.068359,0.49292
18:20:40,2.618896,0.145996,0.729492
18:20:40,3.062256,0.693359,0.449951
18:20:40,3.130859,1.472412,-0.434082
18:20:40,2.383789,1.714355,-1.493408
18:20:40,2.094971,1.512695,-1.82666
18:20:40,1.55957,0.858398,-1.938232
18:20:40,1.283936,0.518555,-2.040039
18:20:40,1.045654,0.338379,-2.432617
18:20:40,1.240479,0.235352,-2.661621
18:20:40,1.582275,0.262451,-2.990723
18:20:40,1.473877,0.585449,-3.490967
18:20:40,1.569092,0.787842,-3.491211
18:20:40,1.451416,0.458252,-2.237061
18:20:40,2.106201,0.371582,0.112549
18:20:40,2.257324,0.058594,2.603516
18:20:40,0.676758,0.124756,1.570801
18:20:40,-0.491699,-0.833252,1.930908
18:20:40,-1.835693,-1.096191,0.762939
18:20:40,-0.970947,-0.70874,-0.535889
18:20:40,0.361816,-0.621582,0.331055
18:20:40,2.322998,-0.939453,2.93457
18:20:40,1.521729,-0.665283,1.128662
18:20:40,2.945068,0.256836,-0.725586
18:20:40,4.41333,1.307617,-1.348145
18:20:40,2.514404,1.950928,-2.6875
18:20:40,2.556885,1.061768,-0.698242
18:20:40,1.648193,-0.236572,0.774902
18:20:40,0.662109,-0.2854,0.464355
18:20:40,0.606689,-0.116455,0.637939
18:20:40,0.565918,-0.122803,0.81958
18:20:40,0.344238,-0.157227,0.989502
18:20:40,0.253174,-0.243164,0.990967
18:20:40,0.095703,-0.307617,0.726074
18:20:40,0.08667,-0.316895,0.526367
18:20:40,0.199463,-0.322754,0.721924
18:20:40,0.238525,-0.240723,0.764648
18:20:40,0.28833,-0.154053,0.705811
18:20:40,0.555664,-0.156494,0.890137
18:20:40,0.825928,-0.132813,0.755127
18:20:40,0.925049,0.012207,0.45459
18:20:40,1.425049,0.113037,0.342773
18:20:40,1.532715,0.104248,-0.056152
18:20:40,1.330078,0.515381,0.010742
18:20:40,1.17041,0.739014,0.230713
18:20:40,0.81665,0.496582,0.33667
18:20:40,0.729248,0.34668,0.496094
18:20:40,0.67627,0.272705,0.585938
18:20:40,0.54541,0.177734,0.613037
18:20:40,0.498535,0.093262,0.64917
18:20:40,0.533691,0.024902,0.656982
18:20:40,0.584717,-0.030273,0.617432
18:20:40,0.682129,-0.05835,0.579834
18:20:40,0.808838,-0.070068,0.53418
18:20:40,0.903564,-0.08374,0.472412
18:20:40,0.968994,-0.105469,0.44458
18:20:40,0.996094,-0.146484,0.419189
18:20:40,0.921875,-0.137451,0.363037
18:20:40,0.840576,-0.095947,0.437744
18:20:40,0.851074,-0.120117,0.5896
18:20:40,0.782227,-0.093018,0.510498
18:20:40,0.855713,-0.113281,0.533691
18:20:40,0.85791,-0.099609,0.529297
18:20:40,0.809326,-0.035889,0.506836
18:20:40,0.751465,-0.01709,0.503174
18:20:40,0.96582,-0.068604,0.683838
18:20:40,0.713623,-0.12793,0.47168
18:20:40,0.766357,-0.172119,0.79248
18:20:40,0.631348,-0.052979,1.037842
18:20:40,-0.583496,-0.83374,1.864014
18:20:40,0.013428,-0.195068,0.756592
18:20:40,0.298584,-0.035889,1.040771
18:20:40,0.193115,0.527832,0.911865
18:20:40,1.083252,0.699707,0.499268
18:20:40,1.556396,0.066895,-0.119629
18:20:40,2.033447,-0.297607,1.091797
18:20:40,2.14624,0.320557,1.846924
18:20:40,2.236084,0.620605,1.688477
18:20:40,2.958496,0.294922,2.19165
18:20:40,2.6521,0.105225,1.090088
18:20:40,6.253418,2.487061,1.454346
18:20:40,5.443848,3.071289,0.588135
18:20:40,1.678223,1.070557,-0.184814
18:20:40,1.867676,0.113281,1.524658
18:20:40,1.045898,-0.216553,1.320557
18:20:40,0.536133,-0.144043,0.791504
18:20:40,0.38623,-0.325195,0.945068
18:20:40,0.156494,-0.561279,0.818848
18:20:40,0.019287,-0.652832,0.432129
18:20:40,0.146729,-0.701416,0.444092
18:20:40,0.604736,-0.782227,0.792725
18:20:40,1.071045,-0.712891,0.730469
18:20:41,1.197998,-0.465088,0.253418
18:20:41,1.39624,-0.28833,0.132813
18:20:41,1.577148,-0.22583,0.225342
18:20:41,1.614746,-0.166748,0.251953
18:20:41,1.734131,-0.078125,0.281006
18:20:41,1.894287,0.039551,0.312256
18:20:41,2.07666,0.131836,0.289063
18:20:41,2.167969,0.187256,0.209717
18:20:41,2.126953,0.152588,0.039795
18:20:41,2.254639,0.091309,0.07373
18:20:41,2.5625,0.121582,0.433838
18:20:41,2.939209,0.284912,0.664063
18:20:41,3.185791,0.818604,0.290527
18:20:41,2.63916,1.238525,-0.711914
18:20:41,2.050293,1.199219,-1.507568
18:20:41,1.689941,0.847168,-1.72998
18:20:41,1.363281,0.545898,-1.934814
18:20:41,1.328369,0.560059,-2.286865
18:20:41,1.580322,0.775879,-2.706055
18:20:41,1.557861,1.003906,-3.283203
18:20:41,1.242676,1.224854,-3.822021
18:20:41,1.296875,1.059326,-3.610107
18:20:41,1.412842,0.509033,-2.582031
18:20:41,1.880859,0.171875,-0.654053
18:20:41,2.672607,-0.086182,2.070068
18:20:41,1.391113,-0.285156,2.536865
18:20:41,-0.204102,-0.395996,0.376221
18:20:41,-0.618652,-1.268311,0.145752
18:20:41,-1.389404,-2.111084,1.244873
18:20:41,0.303223,-1.270264,0.326172
18:20:41,1.550537,-1.494629,2.36499
18:20:41,2.523682,-1.310303,1.268555
18:20:41,1.873047,-0.484375,-1.211426
18:20:41,4.659668,0.27417,-0.520752
18:20:41,2.485107,0.862549,-2.005615
18:20:41,2.562256,1.320068,-0.895508
18:20:41,1.270996,0.573975,-0.327393
18:20:41,0.999512,0.043457,0.6604
18:20:41,0.738525,0.008545,0.962158
18:20:41,0.410645,0.080078,0.750732
18:20:41,0.341309,0.105957,0.801025
18:20:41,0.322021,0.116943,0.891113
18:20:41,0.244385,0.149902,0.803467
18:20:41,0.121094,0.159668,0.662109
18:20:41,0.084717,0.096924,0.712158
18:20:41,0.141357,0.024658,0.803711
18:20:41,0.198242,0.019287,0.765137
18:20:41,0.232422,0.026855,0.726807
18:20:41,0.292725,0.038818,0.715088
18:20:41,0.529053,0.125488,0.835938
18:20:41,0.861084,0.259277,0.835449
18:20:41,1.015381,0.418457,0.474121
18:20:41,1.182373,0.690186,0.154785
18:20:41,1.363525,0.801514,-0.043945
18:20:41,1.259033,0.456299,0.035889
18:20:41,1.141357,0.106934,0.426025
18:20:41,0.826904,-0.107666,0.546631
18:20:41,0.714844,-0.195313,0.589111
18:20:41,0.726074,-0.225342,0.678711
18:20:41,0.65918,-0.239258,0.639404
18:20:41,0.603271,-0.267822,0.658447
18:20:41,0.595703,-0.26416,0.671875
18:20:41,0.657227,-0.233154,0.655273
18:20:41,0.685791,-0.174316,0.595947
18:20:41,0.729492,-0.116455,0.550781
18:20:41,0.772461,-0.04248,0.523926
18:20:41,0.834961,0.021484,0.445068
18:20:41,0.830078,0.030762,0.448975
18:20:41,1.081055,0.263184,0.477051
18:20:41,0.979492,0.353516,0.286865
18:20:41,1.082275,0.249512,0.355713
18:20:41,0.98999,0.094238,0.480957
18:20:41,0.594482,-0.166504,0.650879
18:20:41,0.455566,-0.252197,0.805664
18:20:41,0.795166,-0.168701,0.729248
18:20:41,0.720459,-0.229004,0.822754
18:20:41,-0.121582,-0.426514,1.476074
18:20:41,-0.227295,-0.35376,1.410889
18:20:41,0.463379,-0.110107,0.721436
18:20:41,0.399658,-0.085205,0.904541
18:20:41,0.309082,0.232178,1.31665
18:20:41,1.174072,0.436035,0.259277
18:20:41,1.707764,-0.334473,-0.176514
18:20:41,1.829346,-0.33374,1.751221
18:20:41,2.119873,0.50708,1.793945
18:20:41,2.178223,0.105713,1.576904
18:20:41,3.157227,-0.033936,1.939697
18:20:41,2.949463,0.883545,1.275879
18:20:41,4.906494,2.918213,0.450439
18:20:41,5.035156,4.520996,-0.153809
18:20:41,1.34082,2.005127,-0.85498
18:20:41,1.316162,0.537598,1.198486
18:20:41,0.906982,0.0271,1.380859
18:20:41,0.25708,-0.190186,0.8125
18:20:41,0.094238,-0.568115,0.748779
18:20:41,-0.026611,-0.923096,0.779541
18:20:41,-0.141113,-1.054443,0.442627
18:20:41,-0.0271,-1.178955,0.595703
18:20:41,0.625488,-1.276123,0.958984
18:20:41,1.20459,-1.040039,0.711914
